"task","word","correct_response","type","log","rt","stimulus","response","trial_type","trial_index","plugin_version","time_elapsed","key_mapping","university","sonaID","personal_code","correct","subject_id"
"main","Kunstbuch","d","word","{""matched_word"":""Schlufuhr"",""list"":""9"",""participant_in_list"":""9""}","474","<div class=""stimulus-text"" id=""stimulus-word"" style=""visibility: hidden;"">Kunstbuch</div>","k","html-keyboard-response","3671","2.1.0","2143557","word:d, nonword:k","erfurt","aliona","toolongtoread","false","412998"
"main","Kletterpartie","d","word","{""matched_word"":""Bränterjartie"",""list"":""9"",""participant_in_list"":""9""}","73","<div class=""stimulus-text"" id=""stimulus-word"" style=""visibility: hidden;"">Kletterpartie</div>","k","html-keyboard-response","3674","2.1.0","2144657","word:d, nonword:k","erfurt","aliona","toolongtoread","false","412998"
"main","Agafbeiralter","k","pseudoword","{""matched_word"":""Atomzeitalter"",""list"":""9"",""participant_in_list"":""9""}","1691","<div class=""stimulus-text"" id=""stimulus-word"" style=""visibility: hidden;"">Agafbeiralter</div>","k","html-keyboard-response","3677","2.1.0","2147378","word:d, nonword:k","erfurt","aliona","toolongtoread","true","412998"
"main","Kofs","k","pseudoword","{""matched_word"":""Koks"",""list"":""9"",""participant_in_list"":""9""}","913","<div class=""stimulus-text"" id=""stimulus-word"" style=""visibility: hidden;"">Kofs</div>","k","html-keyboard-response","3680","2.1.0","2149305","word:d, nonword:k","erfurt","aliona","toolongtoread","true","412998"
"main","Langspielplatte","d","word","{""matched_word"":""Hangglaugplatte"",""list"":""9"",""participant_in_list"":""9""}","597","<div class=""stimulus-text"" id=""stimulus-word"" style=""visibility: hidden;"">Langspielplatte</div>","k","html-keyboard-response","3683","2.1.0","2150916","word:d, nonword:k","erfurt","aliona","toolongtoread","false","412998"
"main","Gemeralschaub","k","pseudoword","{""matched_word"":""Generalstreik"",""list"":""9"",""participant_in_list"":""9""}","33","<div class=""stimulus-text"" id=""stimulus-word"" style=""visibility: hidden;"">Gemeralschaub</div>","k","html-keyboard-response","3686","2.1.0","2151977","word:d, nonword:k","erfurt","aliona","toolongtoread","true","412998"
"main","allzeit","d","word","{""matched_word"":""anzbeit"",""list"":""9"",""participant_in_list"":""9""}","1095","<div class=""stimulus-text"" id=""stimulus-word"" style=""visibility: hidden;"">allzeit</div>","k","html-keyboard-response","3689","2.1.0","2154091","word:d, nonword:k","erfurt","aliona","toolongtoread","false","412998"
"main","Bähnrecht","k","pseudoword","{""matched_word"":""Wohnrecht"",""list"":""9"",""participant_in_list"":""9""}","1045","<div class=""stimulus-text"" id=""stimulus-word"" style=""visibility: hidden;"">Bähnrecht</div>","k","html-keyboard-response","3692","2.1.0","2156213","word:d, nonword:k","erfurt","aliona","toolongtoread","true","412998"
"main","Mixer","d","word","{""matched_word"":""Kijer"",""list"":""9"",""participant_in_list"":""9""}","323","<div class=""stimulus-text"" id=""stimulus-word"" style=""visibility: hidden;"">Mixer</div>","k","html-keyboard-response","3695","2.1.0","2157553","word:d, nonword:k","erfurt","aliona","toolongtoread","false","412998"
"main","Arzbanden","k","pseudoword","{""matched_word"":""Fußballen"",""list"":""9"",""participant_in_list"":""9""}","29","<div class=""stimulus-text"" id=""stimulus-word"" style=""visibility: hidden;"">Arzbanden</div>","k","html-keyboard-response","3698","2.1.0","2158604","word:d, nonword:k","erfurt","aliona","toolongtoread","true","412998"
"main","Problängierung","k","pseudoword","{""matched_word"":""Programmierung"",""list"":""9"",""participant_in_list"":""9""}","1200","<div class=""stimulus-text"" id=""stimulus-word"" style=""visibility: hidden;"">Problängierung</div>","k","html-keyboard-response","3701","2.1.0","2160822","word:d, nonword:k","erfurt","aliona","toolongtoread","true","412998"
"main","Faufwag","k","pseudoword","{""matched_word"":""Laufweg"",""list"":""9"",""participant_in_list"":""9""}","826","<div class=""stimulus-text"" id=""stimulus-word"" style=""visibility: hidden;"">Faufwag</div>","k","html-keyboard-response","3704","2.1.0","2162678","word:d, nonword:k","erfurt","aliona","toolongtoread","true","412998"
"main","herumreiten","d","word","{""matched_word"":""benustieten"",""list"":""9"",""participant_in_list"":""9""}","82","<div class=""stimulus-text"" id=""stimulus-word"" style=""visibility: hidden;"">herumreiten</div>","k","html-keyboard-response","3707","2.1.0","2163789","word:d, nonword:k","erfurt","aliona","toolongtoread","false","412998"
"main","zuläbrerfrabten","k","pseudoword","{""matched_word"":""zurückerstatten"",""list"":""9"",""participant_in_list"":""9""}","442","<div class=""stimulus-text"" id=""stimulus-word"" style=""visibility: hidden;"">zuläbrerfrabten</div>","k","html-keyboard-response","3710","2.1.0","2165258","word:d, nonword:k","erfurt","aliona","toolongtoread","true","412998"
"main","Fertigung","d","word","{""matched_word"":""Nersibung"",""list"":""9"",""participant_in_list"":""9""}","875","<div class=""stimulus-text"" id=""stimulus-word"" style=""visibility: hidden;"">Fertigung</div>","k","html-keyboard-response","3713","2.1.0","2167159","word:d, nonword:k","erfurt","aliona","toolongtoread","false","412998"
"main","Steckenpferd","d","word","{""matched_word"":""Steckertnebs"",""list"":""9"",""participant_in_list"":""9""}","452","<div class=""stimulus-text"" id=""stimulus-word"" style=""visibility: hidden;"">Steckenpferd</div>","k","html-keyboard-response","3716","2.1.0","2168637","word:d, nonword:k","erfurt","aliona","toolongtoread","false","412998"
"main","Gefzubipation","k","pseudoword","{""matched_word"":""Kommunikation"",""list"":""9"",""participant_in_list"":""9""}","243","<div class=""stimulus-text"" id=""stimulus-word"" style=""visibility: hidden;"">Gefzubipation</div>","k","html-keyboard-response","3719","2.1.0","2169949","word:d, nonword:k","erfurt","aliona","toolongtoread","true","412998"
"main","Gobchenrecht","k","pseudoword","{""matched_word"":""Kirchenrecht"",""list"":""9"",""participant_in_list"":""9""}","686","<div class=""stimulus-text"" id=""stimulus-word"" style=""visibility: hidden;"">Gobchenrecht</div>","k","html-keyboard-response","3722","2.1.0","2171656","word:d, nonword:k","erfurt","aliona","toolongtoread","true","412998"
"main","Bundesliga","d","word","{""matched_word"":""Auftebligi"",""list"":""9"",""participant_in_list"":""9""}","621","<div class=""stimulus-text"" id=""stimulus-word"" style=""visibility: hidden;"">Bundesliga</div>","k","html-keyboard-response","3725","2.1.0","2173305","word:d, nonword:k","erfurt","aliona","toolongtoread","false","412998"
"main","Elebstochatab","k","pseudoword","{""matched_word"":""Elektrostatik"",""list"":""9"",""participant_in_list"":""9""}","502","<div class=""stimulus-text"" id=""stimulus-word"" style=""visibility: hidden;"">Elebstochatab</div>","k","html-keyboard-response","3728","2.1.0","2174848","word:d, nonword:k","erfurt","aliona","toolongtoread","true","412998"
"main","missionieren","d","word","{""matched_word"":""rattiolieren"",""list"":""9"",""participant_in_list"":""9""}","2263","<div class=""stimulus-text"" id=""stimulus-word"" style=""visibility: hidden;"">missionieren</div>","k","html-keyboard-response","3731","2.1.0","2178124","word:d, nonword:k","erfurt","aliona","toolongtoread","false","412998"
"main","Gockfanlage","k","pseudoword","{""matched_word"":""Lichtanlage"",""list"":""9"",""participant_in_list"":""9""}","692","<div class=""stimulus-text"" id=""stimulus-word"" style=""visibility: hidden;"">Gockfanlage</div>","k","html-keyboard-response","3734","2.1.0","2179839","word:d, nonword:k","erfurt","aliona","toolongtoread","true","412998"
"main","eilfertig","d","word","{""matched_word"":""aubbertig"",""list"":""9"",""participant_in_list"":""9""}","26","<div class=""stimulus-text"" id=""stimulus-word"" style=""visibility: hidden;"">eilfertig</div>","k","html-keyboard-response","3737","2.1.0","2180926","word:d, nonword:k","erfurt","aliona","toolongtoread","false","412998"
"main","bieblangen","k","pseudoword","{""matched_word"":""beibringen"",""list"":""9"",""participant_in_list"":""9""}","401","<div class=""stimulus-text"" id=""stimulus-word"" style=""visibility: hidden;"">bieblangen</div>","k","html-keyboard-response","3740","2.1.0","2182336","word:d, nonword:k","erfurt","aliona","toolongtoread","true","412998"
"main","bedrogten","k","pseudoword","{""matched_word"":""bestatten"",""list"":""9"",""participant_in_list"":""9""}","104","<div class=""stimulus-text"" id=""stimulus-word"" style=""visibility: hidden;"">bedrogten</div>","k","html-keyboard-response","3743","2.1.0","2183461","word:d, nonword:k","erfurt","aliona","toolongtoread","true","412998"
"main","Anböbung","k","pseudoword","{""matched_word"":""Ablösung"",""list"":""9"",""participant_in_list"":""9""}","550","<div class=""stimulus-text"" id=""stimulus-word"" style=""visibility: hidden;"">Anböbung</div>","k","html-keyboard-response","3746","2.1.0","2185030","word:d, nonword:k","erfurt","aliona","toolongtoread","true","412998"
"main","umburtslen","k","pseudoword","{""matched_word"":""zuschulden"",""list"":""9"",""participant_in_list"":""9""}","79","<div class=""stimulus-text"" id=""stimulus-word"" style=""visibility: hidden;"">umburtslen</div>","k","html-keyboard-response","3749","2.1.0","2186133","word:d, nonword:k","erfurt","aliona","toolongtoread","true","412998"
"main","Abtdel","k","pseudoword","{""matched_word"":""Achsel"",""list"":""9"",""participant_in_list"":""9""}","740","<div class=""stimulus-text"" id=""stimulus-word"" style=""visibility: hidden;"">Abtdel</div>","k","html-keyboard-response","3752","2.1.0","2187892","word:d, nonword:k","erfurt","aliona","toolongtoread","true","412998"
"main","Ertehlnand","k","pseudoword","{""matched_word"":""Unterpfand"",""list"":""9"",""participant_in_list"":""9""}","252","<div class=""stimulus-text"" id=""stimulus-word"" style=""visibility: hidden;"">Ertehlnand</div>","k","html-keyboard-response","3755","2.1.0","2189182","word:d, nonword:k","erfurt","aliona","toolongtoread","true","412998"
"main","Kauwekt","k","pseudoword","{""matched_word"":""Tauwerk"",""list"":""9"",""participant_in_list"":""9""}","1129","<div class=""stimulus-text"" id=""stimulus-word"" style=""visibility: hidden;"">Kauwekt</div>","k","html-keyboard-response","3758","2.1.0","2191343","word:d, nonword:k","erfurt","aliona","toolongtoread","true","412998"
"main","Remoulade","d","word","{""matched_word"":""Befaunale"",""list"":""9"",""participant_in_list"":""9""}","286","<div class=""stimulus-text"" id=""stimulus-word"" style=""visibility: hidden;"">Remoulade</div>","k","html-keyboard-response","3761","2.1.0","2192651","word:d, nonword:k","erfurt","aliona","toolongtoread","false","412998"
"main","Infusion","d","word","{""matched_word"":""Asbudian"",""list"":""9"",""participant_in_list"":""9""}","299","<div class=""stimulus-text"" id=""stimulus-word"" style=""visibility: hidden;"">Infusion</div>","k","html-keyboard-response","3764","2.1.0","2193972","word:d, nonword:k","erfurt","aliona","toolongtoread","false","412998"
"main","Staas","k","pseudoword","{""matched_word"":""Staat"",""list"":""9"",""participant_in_list"":""9""}","317","<div class=""stimulus-text"" id=""stimulus-word"" style=""visibility: hidden;"">Staas</div>","k","html-keyboard-response","3767","2.1.0","2195310","word:d, nonword:k","erfurt","aliona","toolongtoread","true","412998"
"main","Hakkontipuinat","k","pseudoword","{""matched_word"":""Diskontinuität"",""list"":""9"",""participant_in_list"":""9""}","905","<div class=""stimulus-text"" id=""stimulus-word"" style=""visibility: hidden;"">Hakkontipuinat</div>","k","html-keyboard-response","3770","2.1.0","2197236","word:d, nonword:k","erfurt","aliona","toolongtoread","true","412998"
"main","elilbytig","k","pseudoword","{""matched_word"":""edelmütig"",""list"":""9"",""participant_in_list"":""9""}","361","<div class=""stimulus-text"" id=""stimulus-word"" style=""visibility: hidden;"">elilbytig</div>","k","html-keyboard-response","3773","2.1.0","2198619","word:d, nonword:k","erfurt","aliona","toolongtoread","true","412998"
"main","Aufenthalt","d","word","{""matched_word"":""Arfenbrolt"",""list"":""9"",""participant_in_list"":""9""}","214","<div class=""stimulus-text"" id=""stimulus-word"" style=""visibility: hidden;"">Aufenthalt</div>","k","html-keyboard-response","3776","2.1.0","2199859","word:d, nonword:k","erfurt","aliona","toolongtoread","false","412998"
"main","Zeiteinheit","d","word","{""matched_word"":""Feibeidheit"",""list"":""9"",""participant_in_list"":""9""}","394","<div class=""stimulus-text"" id=""stimulus-word"" style=""visibility: hidden;"">Zeiteinheit</div>","k","html-keyboard-response","3779","2.1.0","2201282","word:d, nonword:k","erfurt","aliona","toolongtoread","false","412998"
"main","verdienen","d","word","{""matched_word"":""verfeifen"",""list"":""9"",""participant_in_list"":""9""}","260","<div class=""stimulus-text"" id=""stimulus-word"" style=""visibility: hidden;"">verdienen</div>","k","html-keyboard-response","3782","2.1.0","2202565","word:d, nonword:k","erfurt","aliona","toolongtoread","false","412998"
"main","desithläßig","k","pseudoword","{""matched_word"":""gesetzmäßig"",""list"":""9"",""participant_in_list"":""9""}","195","<div class=""stimulus-text"" id=""stimulus-word"" style=""visibility: hidden;"">desithläßig</div>","k","html-keyboard-response","3785","2.1.0","2203787","word:d, nonword:k","erfurt","aliona","toolongtoread","true","412998"
"main","Vater","d","word","{""matched_word"":""Fiter"",""list"":""9"",""participant_in_list"":""9""}","145","<div class=""stimulus-text"" id=""stimulus-word"" style=""visibility: hidden;"">Vater</div>","k","html-keyboard-response","3788","2.1.0","2204949","word:d, nonword:k","erfurt","aliona","toolongtoread","false","412998"
"main","fecken","k","pseudoword","{""matched_word"":""feucht"",""list"":""9"",""participant_in_list"":""9""}","329","<div class=""stimulus-text"" id=""stimulus-word"" style=""visibility: hidden;"">fecken</div>","k","html-keyboard-response","3791","2.1.0","2206294","word:d, nonword:k","erfurt","aliona","toolongtoread","true","412998"
"main","Brannbruch","k","pseudoword","{""matched_word"":""Brennpunkt"",""list"":""9"",""participant_in_list"":""9""}","135","<div class=""stimulus-text"" id=""stimulus-word"" style=""visibility: hidden;"">Brannbruch</div>","k","html-keyboard-response","3794","2.1.0","2207453","word:d, nonword:k","erfurt","aliona","toolongtoread","true","412998"
"main","Stadtbauamt","d","word","{""matched_word"":""Staldhauags"",""list"":""9"",""participant_in_list"":""9""}","32","<div class=""stimulus-text"" id=""stimulus-word"" style=""visibility: hidden;"">Stadtbauamt</div>","k","html-keyboard-response","3797","2.1.0","2208509","word:d, nonword:k","erfurt","aliona","toolongtoread","false","412998"
"main","Stereohbäß","k","pseudoword","{""matched_word"":""Stereoskop"",""list"":""9"",""participant_in_list"":""9""}","680","<div class=""stimulus-text"" id=""stimulus-word"" style=""visibility: hidden;"">Stereohbäß</div>","k","html-keyboard-response","3800","2.1.0","2210254","word:d, nonword:k","erfurt","aliona","toolongtoread","true","412998"
"main","Grabstelle","d","word","{""matched_word"":""Blabstende"",""list"":""9"",""participant_in_list"":""9""}","466","<div class=""stimulus-text"" id=""stimulus-word"" style=""visibility: hidden;"">Grabstelle</div>","k","html-keyboard-response","3803","2.1.0","2211745","word:d, nonword:k","erfurt","aliona","toolongtoread","false","412998"
"main","Schussel","d","word","{""matched_word"":""Schundel"",""list"":""9"",""participant_in_list"":""9""}","297","<div class=""stimulus-text"" id=""stimulus-word"" style=""visibility: hidden;"">Schussel</div>","k","html-keyboard-response","3806","2.1.0","2213058","word:d, nonword:k","erfurt","aliona","toolongtoread","false","412998"
"main","Aufmarschgebiet","d","word","{""matched_word"":""Blumachtstebaut"",""list"":""9"",""participant_in_list"":""9""}","221","<div class=""stimulus-text"" id=""stimulus-word"" style=""visibility: hidden;"">Aufmarschgebiet</div>","k","html-keyboard-response","3809","2.1.0","2214299","word:d, nonword:k","erfurt","aliona","toolongtoread","false","412998"
"main","Obdachlose","d","word","{""matched_word"":""Imrocklose"",""list"":""9"",""participant_in_list"":""9""}","45","<div class=""stimulus-text"" id=""stimulus-word"" style=""visibility: hidden;"">Obdachlose</div>","k","html-keyboard-response","3812","2.1.0","2215373","word:d, nonword:k","erfurt","aliona","toolongtoread","false","412998"
"main","Herztätigkeit","d","word","{""matched_word"":""Lahlbätigkeit"",""list"":""9"",""participant_in_list"":""9""}","216","<div class=""stimulus-text"" id=""stimulus-word"" style=""visibility: hidden;"">Herztätigkeit</div>","k","html-keyboard-response","3815","2.1.0","2216613","word:d, nonword:k","erfurt","aliona","toolongtoread","false","412998"
"main","fafreiren","k","pseudoword","{""matched_word"":""lackieren"",""list"":""9"",""participant_in_list"":""9""}","256","<div class=""stimulus-text"" id=""stimulus-word"" style=""visibility: hidden;"">fafreiren</div>","k","html-keyboard-response","3818","2.1.0","2217883","word:d, nonword:k","erfurt","aliona","toolongtoread","true","412998"
"main","Meelasbund","k","pseudoword","{""matched_word"":""Meeresluft"",""list"":""9"",""participant_in_list"":""9""}","471","<div class=""stimulus-text"" id=""stimulus-word"" style=""visibility: hidden;"">Meelasbund</div>","k","html-keyboard-response","3821","2.1.0","2219385","word:d, nonword:k","erfurt","aliona","toolongtoread","true","412998"
"main","Glauschbleke","k","pseudoword","{""matched_word"":""Fleischtheke"",""list"":""9"",""participant_in_list"":""9""}","215","<div class=""stimulus-text"" id=""stimulus-word"" style=""visibility: hidden;"">Glauschbleke</div>","k","html-keyboard-response","3824","2.1.0","2220618","word:d, nonword:k","erfurt","aliona","toolongtoread","true","412998"
"main","Blufigdestelle","k","pseudoword","{""matched_word"":""Bushaltestelle"",""list"":""9"",""participant_in_list"":""9""}","60","<div class=""stimulus-text"" id=""stimulus-word"" style=""visibility: hidden;"">Blufigdestelle</div>","k","html-keyboard-response","3827","2.1.0","2221704","word:d, nonword:k","erfurt","aliona","toolongtoread","true","412998"
"main","Weimchot","k","pseudoword","{""matched_word"":""Weißbrot"",""list"":""9"",""participant_in_list"":""9""}","365","<div class=""stimulus-text"" id=""stimulus-word"" style=""visibility: hidden;"">Weimchot</div>","k","html-keyboard-response","3830","2.1.0","2223092","word:d, nonword:k","erfurt","aliona","toolongtoread","true","412998"
"main","behadten","k","pseudoword","{""matched_word"":""bedeuten"",""list"":""9"",""participant_in_list"":""9""}","1567","<div class=""stimulus-text"" id=""stimulus-word"" style=""visibility: hidden;"">behadten</div>","k","html-keyboard-response","3833","2.1.0","2225707","word:d, nonword:k","erfurt","aliona","toolongtoread","true","412998"
"main","Blockierung","d","word","{""matched_word"":""Frochiedung"",""list"":""9"",""participant_in_list"":""9""}","280","<div class=""stimulus-text"" id=""stimulus-word"" style=""visibility: hidden;"">Blockierung</div>","k","html-keyboard-response","3836","2.1.0","2227017","word:d, nonword:k","erfurt","aliona","toolongtoread","false","412998"
"main","eincallen","k","pseudoword","{""matched_word"":""einpassen"",""list"":""9"",""participant_in_list"":""9""}","14","<div class=""stimulus-text"" id=""stimulus-word"" style=""visibility: hidden;"">eincallen</div>","k","html-keyboard-response","3839","2.1.0","2228057","word:d, nonword:k","erfurt","aliona","toolongtoread","true","412998"
"main","Waschhaus","d","word","{""matched_word"":""Bampfhaus"",""list"":""9"",""participant_in_list"":""9""}","170","<div class=""stimulus-text"" id=""stimulus-word"" style=""visibility: hidden;"">Waschhaus</div>","k","html-keyboard-response","3842","2.1.0","2229253","word:d, nonword:k","erfurt","aliona","toolongtoread","false","412998"
"main","kreisrund","d","word","{""matched_word"":""kreimburg"",""list"":""9"",""participant_in_list"":""9""}","529","<div class=""stimulus-text"" id=""stimulus-word"" style=""visibility: hidden;"">kreisrund</div>","k","html-keyboard-response","3845","2.1.0","2230803","word:d, nonword:k","erfurt","aliona","toolongtoread","false","412998"
"main","staatlich","d","word","{""matched_word"":""stauglich"",""list"":""9"",""participant_in_list"":""9""}","152","<div class=""stimulus-text"" id=""stimulus-word"" style=""visibility: hidden;"">staatlich</div>","k","html-keyboard-response","3848","2.1.0","2232022","word:d, nonword:k","erfurt","aliona","toolongtoread","false","412998"
"main","dafür","d","word","{""matched_word"":""dafés"",""list"":""9"",""participant_in_list"":""9""}","151","<div class=""stimulus-text"" id=""stimulus-word"" style=""visibility: hidden;"">dafür</div>","k","html-keyboard-response","3851","2.1.0","2233196","word:d, nonword:k","erfurt","aliona","toolongtoread","false","412998"
"main","Prewialdeibst","k","pseudoword","{""matched_word"":""Spezialdienst"",""list"":""9"",""participant_in_list"":""9""}","134","<div class=""stimulus-text"" id=""stimulus-word"" style=""visibility: hidden;"">Prewialdeibst</div>","k","html-keyboard-response","3854","2.1.0","2234361","word:d, nonword:k","erfurt","aliona","toolongtoread","true","412998"
"main","Grässealgeit","k","pseudoword","{""matched_word"":""Pressearbeit"",""list"":""9"",""participant_in_list"":""9""}","469","<div class=""stimulus-text"" id=""stimulus-word"" style=""visibility: hidden;"">Grässealgeit</div>","k","html-keyboard-response","3857","2.1.0","2235863","word:d, nonword:k","erfurt","aliona","toolongtoread","true","412998"
"main","Armleuchter","d","word","{""matched_word"":""Aufserkster"",""list"":""9"",""participant_in_list"":""9""}","830","<div class=""stimulus-text"" id=""stimulus-word"" style=""visibility: hidden;"">Armleuchter</div>","k","html-keyboard-response","3860","2.1.0","2237750","word:d, nonword:k","erfurt","aliona","toolongtoread","false","412998"
"main","Schärferbrakier","k","pseudoword","{""matched_word"":""Schifferklavier"",""list"":""9"",""participant_in_list"":""9""}","975","<div class=""stimulus-text"" id=""stimulus-word"" style=""visibility: hidden;"">Schärferbrakier</div>","k","html-keyboard-response","3863","2.1.0","2239755","word:d, nonword:k","erfurt","aliona","toolongtoread","true","412998"
"main","Franfackfleger","k","pseudoword","{""matched_word"":""Krankenpfleger"",""list"":""9"",""participant_in_list"":""9""}","492","<div class=""stimulus-text"" id=""stimulus-word"" style=""visibility: hidden;"">Franfackfleger</div>","k","html-keyboard-response","3866","2.1.0","2241272","word:d, nonword:k","erfurt","aliona","toolongtoread","true","412998"
"main","Inbeimsebras","k","pseudoword","{""matched_word"":""Arbeitsethos"",""list"":""9"",""participant_in_list"":""9""}","2500","<div class=""stimulus-text"" id=""stimulus-word"" style=""visibility: hidden;"">Inbeimsebras</div>","k","html-keyboard-response","3869","2.1.0","2244799","word:d, nonword:k","erfurt","aliona","toolongtoread","true","412998"
"main","Gefechtsbereitschaft","d","word","{""matched_word"":""Gefechtsmereinstrigt"",""list"":""9"",""participant_in_list"":""9""}","237","<div class=""stimulus-text"" id=""stimulus-word"" style=""visibility: hidden;"">Gefechtsbereitschaft</div>","k","html-keyboard-response","3872","2.1.0","2246059","word:d, nonword:k","erfurt","aliona","toolongtoread","false","412998"
"main","mandehfeit","k","pseudoword","{""matched_word"":""landesweit"",""list"":""9"",""participant_in_list"":""9""}","1527","<div class=""stimulus-text"" id=""stimulus-word"" style=""visibility: hidden;"">mandehfeit</div>","k","html-keyboard-response","3875","2.1.0","2248607","word:d, nonword:k","erfurt","aliona","toolongtoread","true","412998"
"main","Ratio","d","word","{""matched_word"":""Gariä"",""list"":""9"",""participant_in_list"":""9""}","166","<div class=""stimulus-text"" id=""stimulus-word"" style=""visibility: hidden;"">Ratio</div>","k","html-keyboard-response","3878","2.1.0","2249793","word:d, nonword:k","erfurt","aliona","toolongtoread","false","412998"
"main","gegauten","k","pseudoword","{""matched_word"":""bereiten"",""list"":""9"",""participant_in_list"":""9""}","95","<div class=""stimulus-text"" id=""stimulus-word"" style=""visibility: hidden;"">gegauten</div>","k","html-keyboard-response","3881","2.1.0","2250913","word:d, nonword:k","erfurt","aliona","toolongtoread","true","412998"
"main","Krasseneiffung","k","pseudoword","{""matched_word"":""Klassenausflug"",""list"":""9"",""participant_in_list"":""9""}","131","<div class=""stimulus-text"" id=""stimulus-word"" style=""visibility: hidden;"">Krasseneiffung</div>","k","html-keyboard-response","3884","2.1.0","2252069","word:d, nonword:k","erfurt","aliona","toolongtoread","true","412998"
"main","Fotas","k","pseudoword","{""matched_word"":""Lotos"",""list"":""9"",""participant_in_list"":""9""}","213","<div class=""stimulus-text"" id=""stimulus-word"" style=""visibility: hidden;"">Fotas</div>","k","html-keyboard-response","3887","2.1.0","2253301","word:d, nonword:k","erfurt","aliona","toolongtoread","true","412998"
"main","Pissoir","d","word","{""matched_word"":""Pettoir"",""list"":""9"",""participant_in_list"":""9""}","191","<div class=""stimulus-text"" id=""stimulus-word"" style=""visibility: hidden;"">Pissoir</div>","k","html-keyboard-response","3890","2.1.0","2254505","word:d, nonword:k","erfurt","aliona","toolongtoread","false","412998"
"main","Spielsucht","d","word","{""matched_word"":""Spiebfuhrt"",""list"":""9"",""participant_in_list"":""9""}","8","<div class=""stimulus-text"" id=""stimulus-word"" style=""visibility: hidden;"">Spielsucht</div>","k","html-keyboard-response","3893","2.1.0","2255566","word:d, nonword:k","erfurt","aliona","toolongtoread","false","412998"
"main","Steuererstattung","d","word","{""matched_word"":""Pralererstältung"",""list"":""9"",""participant_in_list"":""9""}","409","<div class=""stimulus-text"" id=""stimulus-word"" style=""visibility: hidden;"">Steuererstattung</div>","k","html-keyboard-response","3896","2.1.0","2256990","word:d, nonword:k","erfurt","aliona","toolongtoread","false","412998"
"main","Kristahlchis","k","pseudoword","{""matched_word"":""Kristallglas"",""list"":""9"",""participant_in_list"":""9""}","742","<div class=""stimulus-text"" id=""stimulus-word"" style=""visibility: hidden;"">Kristahlchis</div>","k","html-keyboard-response","3899","2.1.0","2258761","word:d, nonword:k","erfurt","aliona","toolongtoread","true","412998"
"main","unverständlich","d","word","{""matched_word"":""unperbrüchlich"",""list"":""9"",""participant_in_list"":""9""}","658","<div class=""stimulus-text"" id=""stimulus-word"" style=""visibility: hidden;"">unverständlich</div>","k","html-keyboard-response","3902","2.1.0","2260444","word:d, nonword:k","erfurt","aliona","toolongtoread","false","412998"
"main","Mafer","k","pseudoword","{""matched_word"":""Kader"",""list"":""9"",""participant_in_list"":""9""}","480","<div class=""stimulus-text"" id=""stimulus-word"" style=""visibility: hidden;"">Mafer</div>","k","html-keyboard-response","3905","2.1.0","2261942","word:d, nonword:k","erfurt","aliona","toolongtoread","true","412998"
"main","Kirdinerie","k","pseudoword","{""matched_word"":""Raffinerie"",""list"":""9"",""participant_in_list"":""9""}","212","<div class=""stimulus-text"" id=""stimulus-word"" style=""visibility: hidden;"">Kirdinerie</div>","k","html-keyboard-response","3908","2.1.0","2263175","word:d, nonword:k","erfurt","aliona","toolongtoread","true","412998"
"main","Zeitfenster","d","word","{""matched_word"":""Daubfenster"",""list"":""9"",""participant_in_list"":""9""}","503","<div class=""stimulus-text"" id=""stimulus-word"" style=""visibility: hidden;"">Zeitfenster</div>","k","html-keyboard-response","3911","2.1.0","2264725","word:d, nonword:k","erfurt","aliona","toolongtoread","false","412998"
"main","Geitengibt","k","pseudoword","{""matched_word"":""Seitengang"",""list"":""9"",""participant_in_list"":""9""}","1547","<div class=""stimulus-text"" id=""stimulus-word"" style=""visibility: hidden;"">Geitengibt</div>","k","html-keyboard-response","3914","2.1.0","2267299","word:d, nonword:k","erfurt","aliona","toolongtoread","true","412998"
"main","aatbisten","k","pseudoword","{""matched_word"":""einnisten"",""list"":""9"",""participant_in_list"":""9""}","10","<div class=""stimulus-text"" id=""stimulus-word"" style=""visibility: hidden;"">aatbisten</div>","k","html-keyboard-response","3917","2.1.0","2268330","word:d, nonword:k","erfurt","aliona","toolongtoread","true","412998"
"main","aufblelnen","k","pseudoword","{""matched_word"":""ausbrennen"",""list"":""9"",""participant_in_list"":""9""}","853","<div class=""stimulus-text"" id=""stimulus-word"" style=""visibility: hidden;"">aufblelnen</div>","k","html-keyboard-response","3920","2.1.0","2270211","word:d, nonword:k","erfurt","aliona","toolongtoread","true","412998"
"main","Rergiebidungssüstem","k","pseudoword","{""matched_word"":""Verteidigungssystem"",""list"":""9"",""participant_in_list"":""9""}","1611","<div class=""stimulus-text"" id=""stimulus-word"" style=""visibility: hidden;"">Rergiebidungssüstem</div>","k","html-keyboard-response","3923","2.1.0","2272845","word:d, nonword:k","erfurt","aliona","toolongtoread","true","412998"
"main","Beleuchter","d","word","{""matched_word"":""Betichster"",""list"":""9"",""participant_in_list"":""9""}","967","<div class=""stimulus-text"" id=""stimulus-word"" style=""visibility: hidden;"">Beleuchter</div>","k","html-keyboard-response","3926","2.1.0","2274835","word:d, nonword:k","erfurt","aliona","toolongtoread","false","412998"
"main","Konbickel","k","pseudoword","{""matched_word"":""Karnickel"",""list"":""9"",""participant_in_list"":""9""}","278","<div class=""stimulus-text"" id=""stimulus-word"" style=""visibility: hidden;"">Konbickel</div>","k","html-keyboard-response","3929","2.1.0","2276138","word:d, nonword:k","erfurt","aliona","toolongtoread","true","412998"
"main","zurückgesetzt","d","word","{""matched_word"":""zudichgesebst"",""list"":""9"",""participant_in_list"":""9""}","5604","<div class=""stimulus-text"" id=""stimulus-word"" style=""visibility: hidden;"">zurückgesetzt</div>","k","html-keyboard-response","3932","2.1.0","2282764","word:d, nonword:k","erfurt","aliona","toolongtoread","false","412998"
"main","Bußgeld","d","word","{""matched_word"":""Almgegs"",""list"":""9"",""participant_in_list"":""9""}","538","<div class=""stimulus-text"" id=""stimulus-word"" style=""visibility: hidden;"">Bußgeld</div>","k","html-keyboard-response","3935","2.1.0","2284314","word:d, nonword:k","erfurt","aliona","toolongtoread","false","412998"
"main","gerecht","d","word","{""matched_word"":""gebebst"",""list"":""9"",""participant_in_list"":""9""}","126","<div class=""stimulus-text"" id=""stimulus-word"" style=""visibility: hidden;"">gerecht</div>","k","html-keyboard-response","3938","2.1.0","2285470","word:d, nonword:k","erfurt","aliona","toolongtoread","false","412998"
"main","Schiffswrack","d","word","{""matched_word"":""Schicksgrack"",""list"":""9"",""participant_in_list"":""9""}","345","<div class=""stimulus-text"" id=""stimulus-word"" style=""visibility: hidden;"">Schiffswrack</div>","k","html-keyboard-response","3941","2.1.0","2286854","word:d, nonword:k","erfurt","aliona","toolongtoread","false","412998"
"main","Peantionsgüpankeit","k","pseudoword","{""matched_word"":""Reaktionsfähigkeit"",""list"":""9"",""participant_in_list"":""9""}","630","<div class=""stimulus-text"" id=""stimulus-word"" style=""visibility: hidden;"">Peantionsgüpankeit</div>","k","html-keyboard-response","3944","2.1.0","2288509","word:d, nonword:k","erfurt","aliona","toolongtoread","true","412998"
"main","fasfahren","k","pseudoword","{""matched_word"":""mitfahren"",""list"":""9"",""participant_in_list"":""9""}","354","<div class=""stimulus-text"" id=""stimulus-word"" style=""visibility: hidden;"">fasfahren</div>","k","html-keyboard-response","3947","2.1.0","2289891","word:d, nonword:k","erfurt","aliona","toolongtoread","true","412998"
"main","Zweiteiler","d","word","{""matched_word"":""Breibeiser"",""list"":""9"",""participant_in_list"":""9""}","2896","<div class=""stimulus-text"" id=""stimulus-word"" style=""visibility: hidden;"">Zweiteiler</div>","k","html-keyboard-response","3950","2.1.0","2293804","word:d, nonword:k","erfurt","aliona","toolongtoread","false","412998"
"main","Antervaltungsurlag","k","pseudoword","{""matched_word"":""Unterhaltungsmusik"",""list"":""9"",""participant_in_list"":""9""}","350","<div class=""stimulus-text"" id=""stimulus-word"" style=""visibility: hidden;"">Antervaltungsurlag</div>","k","html-keyboard-response","3953","2.1.0","2295179","word:d, nonword:k","erfurt","aliona","toolongtoread","true","412998"
"main","Geldfrage","d","word","{""matched_word"":""Koftfrage"",""list"":""9"",""participant_in_list"":""9""}","1137","<div class=""stimulus-text"" id=""stimulus-word"" style=""visibility: hidden;"">Geldfrage</div>","k","html-keyboard-response","3956","2.1.0","2297338","word:d, nonword:k","erfurt","aliona","toolongtoread","false","412998"
"main","Qualitätsverlust","d","word","{""matched_word"":""Qualiroffhergung"",""list"":""9"",""participant_in_list"":""9""}","2156","<div class=""stimulus-text"" id=""stimulus-word"" style=""visibility: hidden;"">Qualitätsverlust</div>","k","html-keyboard-response","3959","2.1.0","2300518","word:d, nonword:k","erfurt","aliona","toolongtoread","false","412998"
"main","Gemetzel","d","word","{""matched_word"":""Befatzel"",""list"":""9"",""participant_in_list"":""9""}","118","<div class=""stimulus-text"" id=""stimulus-word"" style=""visibility: hidden;"">Gemetzel</div>","k","html-keyboard-response","3962","2.1.0","2301651","word:d, nonword:k","erfurt","aliona","toolongtoread","false","412998"
"main","Brennweite","d","word","{""matched_word"":""Fraftweite"",""list"":""9"",""participant_in_list"":""9""}","1504","<div class=""stimulus-text"" id=""stimulus-word"" style=""visibility: hidden;"">Brennweite</div>","k","html-keyboard-response","3965","2.1.0","2304179","word:d, nonword:k","erfurt","aliona","toolongtoread","false","412998"
"main","Aktivposten","d","word","{""matched_word"":""Ahtoubosten"",""list"":""9"",""participant_in_list"":""9""}","1756","<div class=""stimulus-text"" id=""stimulus-word"" style=""visibility: hidden;"">Aktivposten</div>","k","html-keyboard-response","3968","2.1.0","2306955","word:d, nonword:k","erfurt","aliona","toolongtoread","false","412998"
