"task","word","correct_response","type","log","rt","stimulus","response","trial_type","trial_index","plugin_version","time_elapsed","key_mapping","university","sonaID","personal_code","correct","subject_id"
"main","Bimaanfürrung","k","pseudoword","{""matched_word"":""Linienführung"",""list"":""9"",""participant_in_list"":""9""}","675","<div class=""stimulus-text"" id=""stimulus-word"" style=""visibility: hidden;"">Bimaanfürrung</div>","d","html-keyboard-response","3973","2.1.0","2325510","word:d, nonword:k","erfurt","aliona","toolongtoread","false","412998"
"main","Augtalmokürfliegel","k","pseudoword","{""matched_word"":""Blutalkoholspiegel"",""list"":""9"",""participant_in_list"":""9""}","279","<div class=""stimulus-text"" id=""stimulus-word"" style=""visibility: hidden;"">Augtalmokürfliegel</div>","d","html-keyboard-response","3976","2.1.0","2326810","word:d, nonword:k","erfurt","aliona","toolongtoread","false","412998"
"main","Bäst","k","pseudoword","{""matched_word"":""Best"",""list"":""9"",""participant_in_list"":""9""}","374","<div class=""stimulus-text"" id=""stimulus-word"" style=""visibility: hidden;"">Bäst</div>","d","html-keyboard-response","3979","2.1.0","2328204","word:d, nonword:k","erfurt","aliona","toolongtoread","false","412998"
"main","Pflanii","k","pseudoword","{""matched_word"":""Scharia"",""list"":""9"",""participant_in_list"":""9""}","488","<div class=""stimulus-text"" id=""stimulus-word"" style=""visibility: hidden;"">Pflanii</div>","d","html-keyboard-response","3982","2.1.0","2329711","word:d, nonword:k","erfurt","aliona","toolongtoread","false","412998"
"main","Dilipei","k","pseudoword","{""matched_word"":""Polizei"",""list"":""9"",""participant_in_list"":""9""}","668","<div class=""stimulus-text"" id=""stimulus-word"" style=""visibility: hidden;"">Dilipei</div>","d","html-keyboard-response","3985","2.1.0","2331390","word:d, nonword:k","erfurt","aliona","toolongtoread","false","412998"
"main","zerlesen","d","word","{""matched_word"":""ferfelen"",""list"":""9"",""participant_in_list"":""9""}","270","<div class=""stimulus-text"" id=""stimulus-word"" style=""visibility: hidden;"">zerlesen</div>","d","html-keyboard-response","3988","2.1.0","2332711","word:d, nonword:k","erfurt","aliona","toolongtoread","true","412998"
"main","Allthantdruck","k","pseudoword","{""matched_word"":""Bluthochdruck"",""list"":""9"",""participant_in_list"":""9""}","327","<div class=""stimulus-text"" id=""stimulus-word"" style=""visibility: hidden;"">Allthantdruck</div>","d","html-keyboard-response","3991","2.1.0","2334058","word:d, nonword:k","erfurt","aliona","toolongtoread","false","412998"
"main","Hehrreihe","k","pseudoword","{""matched_word"":""Sitzreihe"",""list"":""9"",""participant_in_list"":""9""}","504","<div class=""stimulus-text"" id=""stimulus-word"" style=""visibility: hidden;"">Hehrreihe</div>","d","html-keyboard-response","3994","2.1.0","2335579","word:d, nonword:k","erfurt","aliona","toolongtoread","false","412998"
"main","vorwärts","d","word","{""matched_word"":""vorhirts"",""list"":""9"",""participant_in_list"":""9""}","222","<div class=""stimulus-text"" id=""stimulus-word"" style=""visibility: hidden;"">vorwärts</div>","d","html-keyboard-response","3997","2.1.0","2336825","word:d, nonword:k","erfurt","aliona","toolongtoread","true","412998"
"main","Fanilielbit","k","pseudoword","{""matched_word"":""Familienrat"",""list"":""9"",""participant_in_list"":""9""}","563","<div class=""stimulus-text"" id=""stimulus-word"" style=""visibility: hidden;"">Fanilielbit</div>","d","html-keyboard-response","4000","2.1.0","2338417","word:d, nonword:k","erfurt","aliona","toolongtoread","false","412998"
"main","hinbirren","k","pseudoword","{""matched_word"":""hinführen"",""list"":""9"",""participant_in_list"":""9""}","319","<div class=""stimulus-text"" id=""stimulus-word"" style=""visibility: hidden;"">hinbirren</div>","d","html-keyboard-response","4003","2.1.0","2339795","word:d, nonword:k","erfurt","aliona","toolongtoread","false","412998"
"main","Ditekacher","k","pseudoword","{""matched_word"":""Modemacher"",""list"":""9"",""participant_in_list"":""9""}","228","<div class=""stimulus-text"" id=""stimulus-word"" style=""visibility: hidden;"">Ditekacher</div>","d","html-keyboard-response","4006","2.1.0","2341056","word:d, nonword:k","erfurt","aliona","toolongtoread","false","412998"
"main","Bammersah","k","pseudoword","{""matched_word"":""Hammerhai"",""list"":""9"",""participant_in_list"":""9""}","196","<div class=""stimulus-text"" id=""stimulus-word"" style=""visibility: hidden;"">Bammersah</div>","d","html-keyboard-response","4009","2.1.0","2342275","word:d, nonword:k","erfurt","aliona","toolongtoread","false","412998"
"main","vorbei","d","word","{""matched_word"":""vorgau"",""list"":""9"",""participant_in_list"":""9""}","345","<div class=""stimulus-text"" id=""stimulus-word"" style=""visibility: hidden;"">vorbei</div>","d","html-keyboard-response","4012","2.1.0","2343647","word:d, nonword:k","erfurt","aliona","toolongtoread","true","412998"
"main","wahllos","d","word","{""matched_word"":""hannlos"",""list"":""9"",""participant_in_list"":""9""}","359","<div class=""stimulus-text"" id=""stimulus-word"" style=""visibility: hidden;"">wahllos</div>","d","html-keyboard-response","4015","2.1.0","2345025","word:d, nonword:k","erfurt","aliona","toolongtoread","true","412998"
"main","iberhonben","k","pseudoword","{""matched_word"":""überkommen"",""list"":""9"",""participant_in_list"":""9""}","402","<div class=""stimulus-text"" id=""stimulus-word"" style=""visibility: hidden;"">iberhonben</div>","d","html-keyboard-response","4018","2.1.0","2346451","word:d, nonword:k","erfurt","aliona","toolongtoread","false","412998"
"main","stichhaltig","d","word","{""matched_word"":""stagdmaltig"",""list"":""9"",""participant_in_list"":""9""}","364","<div class=""stimulus-text"" id=""stimulus-word"" style=""visibility: hidden;"">stichhaltig</div>","d","html-keyboard-response","4021","2.1.0","2347833","word:d, nonword:k","erfurt","aliona","toolongtoread","true","412998"
"main","Aori","k","pseudoword","{""matched_word"":""Yoga"",""list"":""9"",""participant_in_list"":""9""}","184","<div class=""stimulus-text"" id=""stimulus-word"" style=""visibility: hidden;"">Aori</div>","d","html-keyboard-response","4024","2.1.0","2349035","word:d, nonword:k","erfurt","aliona","toolongtoread","false","412998"
"main","Zange","d","word","{""matched_word"":""Fande"",""list"":""9"",""participant_in_list"":""9""}","670","<div class=""stimulus-text"" id=""stimulus-word"" style=""visibility: hidden;"">Zange</div>","d","html-keyboard-response","4027","2.1.0","2350820","word:d, nonword:k","erfurt","aliona","toolongtoread","true","412998"
"main","Vorschüler","d","word","{""matched_word"":""Forchrüser"",""list"":""9"",""participant_in_list"":""9""}","482","<div class=""stimulus-text"" id=""stimulus-word"" style=""visibility: hidden;"">Vorschüler</div>","d","html-keyboard-response","4030","2.1.0","2352335","word:d, nonword:k","erfurt","aliona","toolongtoread","true","412998"
"main","Masseurin","d","word","{""matched_word"":""Hassehtin"",""list"":""9"",""participant_in_list"":""9""}","150","<div class=""stimulus-text"" id=""stimulus-word"" style=""visibility: hidden;"">Masseurin</div>","d","html-keyboard-response","4033","2.1.0","2353516","word:d, nonword:k","erfurt","aliona","toolongtoread","true","412998"
"main","erbarbungsfonhig","k","pseudoword","{""matched_word"":""erbarmungswürdig"",""list"":""9"",""participant_in_list"":""9""}","289","<div class=""stimulus-text"" id=""stimulus-word"" style=""visibility: hidden;"">erbarbungsfonhig</div>","d","html-keyboard-response","4036","2.1.0","2354823","word:d, nonword:k","erfurt","aliona","toolongtoread","false","412998"
"main","Faserstung","k","pseudoword","{""matched_word"":""Feuersturm"",""list"":""9"",""participant_in_list"":""9""}","206","<div class=""stimulus-text"" id=""stimulus-word"" style=""visibility: hidden;"">Faserstung</div>","d","html-keyboard-response","4039","2.1.0","2356046","word:d, nonword:k","erfurt","aliona","toolongtoread","false","412998"
"main","Jungfernflug","d","word","{""matched_word"":""Bundfendkurs"",""list"":""9"",""participant_in_list"":""9""}","224","<div class=""stimulus-text"" id=""stimulus-word"" style=""visibility: hidden;"">Jungfernflug</div>","d","html-keyboard-response","4042","2.1.0","2357295","word:d, nonword:k","erfurt","aliona","toolongtoread","true","412998"
"main","überwintern","d","word","{""matched_word"":""iberbäntend"",""list"":""9"",""participant_in_list"":""9""}","431","<div class=""stimulus-text"" id=""stimulus-word"" style=""visibility: hidden;"">überwintern</div>","d","html-keyboard-response","4045","2.1.0","2358751","word:d, nonword:k","erfurt","aliona","toolongtoread","true","412998"
"main","Modellbau","d","word","{""matched_word"":""Sodeckhau"",""list"":""9"",""participant_in_list"":""9""}","441","<div class=""stimulus-text"" id=""stimulus-word"" style=""visibility: hidden;"">Modellbau</div>","d","html-keyboard-response","4048","2.1.0","2360218","word:d, nonword:k","erfurt","aliona","toolongtoread","true","412998"
"main","Ozon","d","word","{""matched_word"":""Opan"",""list"":""9"",""participant_in_list"":""9""}","738","<div class=""stimulus-text"" id=""stimulus-word"" style=""visibility: hidden;"">Ozon</div>","d","html-keyboard-response","4051","2.1.0","2362011","word:d, nonword:k","erfurt","aliona","toolongtoread","true","412998"
"main","Morgenstunde","d","word","{""matched_word"":""Rabgendungde"",""list"":""9"",""participant_in_list"":""9""}","431","<div class=""stimulus-text"" id=""stimulus-word"" style=""visibility: hidden;"">Morgenstunde</div>","d","html-keyboard-response","4054","2.1.0","2363469","word:d, nonword:k","erfurt","aliona","toolongtoread","true","412998"
"main","haartu","k","pseudoword","{""matched_word"":""hierzu"",""list"":""9"",""participant_in_list"":""9""}","713","<div class=""stimulus-text"" id=""stimulus-word"" style=""visibility: hidden;"">haartu</div>","d","html-keyboard-response","4057","2.1.0","2365208","word:d, nonword:k","erfurt","aliona","toolongtoread","false","412998"
"main","durchtrennen","d","word","{""matched_word"":""durchchelben"",""list"":""9"",""participant_in_list"":""9""}","253","<div class=""stimulus-text"" id=""stimulus-word"" style=""visibility: hidden;"">durchtrennen</div>","d","html-keyboard-response","4060","2.1.0","2366493","word:d, nonword:k","erfurt","aliona","toolongtoread","true","412998"
"main","Olympiasieger","d","word","{""matched_word"":""Erigfeasieger"",""list"":""9"",""participant_in_list"":""9""}","372","<div class=""stimulus-text"" id=""stimulus-word"" style=""visibility: hidden;"">Olympiasieger</div>","d","html-keyboard-response","4063","2.1.0","2367881","word:d, nonword:k","erfurt","aliona","toolongtoread","true","412998"
"main","Adtrablild","k","pseudoword","{""matched_word"":""Extrablatt"",""list"":""9"",""participant_in_list"":""9""}","472","<div class=""stimulus-text"" id=""stimulus-word"" style=""visibility: hidden;"">Adtrablild</div>","d","html-keyboard-response","4066","2.1.0","2369376","word:d, nonword:k","erfurt","aliona","toolongtoread","false","412998"
"main","Montageband","d","word","{""matched_word"":""Kontatedind"",""list"":""9"",""participant_in_list"":""9""}","198","<div class=""stimulus-text"" id=""stimulus-word"" style=""visibility: hidden;"">Montageband</div>","d","html-keyboard-response","4069","2.1.0","2370591","word:d, nonword:k","erfurt","aliona","toolongtoread","true","412998"
"main","versenkbar","d","word","{""matched_word"":""verhahrbar"",""list"":""9"",""participant_in_list"":""9""}","394","<div class=""stimulus-text"" id=""stimulus-word"" style=""visibility: hidden;"">versenkbar</div>","d","html-keyboard-response","4072","2.1.0","2372015","word:d, nonword:k","erfurt","aliona","toolongtoread","true","412998"
"main","Bettelei","d","word","{""matched_word"":""Battesie"",""list"":""9"",""participant_in_list"":""9""}","231","<div class=""stimulus-text"" id=""stimulus-word"" style=""visibility: hidden;"">Bettelei</div>","d","html-keyboard-response","4075","2.1.0","2373266","word:d, nonword:k","erfurt","aliona","toolongtoread","true","412998"
"main","nauehls","k","pseudoword","{""matched_word"":""dauernd"",""list"":""9"",""participant_in_list"":""9""}","329","<div class=""stimulus-text"" id=""stimulus-word"" style=""visibility: hidden;"">nauehls</div>","d","html-keyboard-response","4078","2.1.0","2374614","word:d, nonword:k","erfurt","aliona","toolongtoread","false","412998"
"main","Modellierung","d","word","{""matched_word"":""Kideltiebung"",""list"":""9"",""participant_in_list"":""9""}","347","<div class=""stimulus-text"" id=""stimulus-word"" style=""visibility: hidden;"">Modellierung</div>","d","html-keyboard-response","4081","2.1.0","2375977","word:d, nonword:k","erfurt","aliona","toolongtoread","true","412998"
"main","Fasler","k","pseudoword","{""matched_word"":""Fehler"",""list"":""9"",""participant_in_list"":""9""}","684","<div class=""stimulus-text"" id=""stimulus-word"" style=""visibility: hidden;"">Fasler</div>","d","html-keyboard-response","4084","2.1.0","2377687","word:d, nonword:k","erfurt","aliona","toolongtoread","false","412998"
"main","Macht","d","word","{""matched_word"":""Hacht"",""list"":""9"",""participant_in_list"":""9""}","339","<div class=""stimulus-text"" id=""stimulus-word"" style=""visibility: hidden;"">Macht</div>","d","html-keyboard-response","4087","2.1.0","2379049","word:d, nonword:k","erfurt","aliona","toolongtoread","true","412998"
"main","Tabakgeschäft","d","word","{""matched_word"":""Tabahtescholl"",""list"":""9"",""participant_in_list"":""9""}","397","<div class=""stimulus-text"" id=""stimulus-word"" style=""visibility: hidden;"">Tabakgeschäft</div>","d","html-keyboard-response","4090","2.1.0","2380482","word:d, nonword:k","erfurt","aliona","toolongtoread","true","412998"
"main","Breibenzer","k","pseudoword","{""matched_word"":""Freidenker"",""list"":""9"",""participant_in_list"":""9""}","602","<div class=""stimulus-text"" id=""stimulus-word"" style=""visibility: hidden;"">Breibenzer</div>","d","html-keyboard-response","4093","2.1.0","2382105","word:d, nonword:k","erfurt","aliona","toolongtoread","false","412998"
"main","Telefonverbindung","d","word","{""matched_word"":""Lelefolvermahlung"",""list"":""9"",""participant_in_list"":""9""}","556","<div class=""stimulus-text"" id=""stimulus-word"" style=""visibility: hidden;"">Telefonverbindung</div>","d","html-keyboard-response","4096","2.1.0","2383689","word:d, nonword:k","erfurt","aliona","toolongtoread","true","412998"
"main","hineinlassen","d","word","{""matched_word"":""himiermassen"",""list"":""9"",""participant_in_list"":""9""}","887","<div class=""stimulus-text"" id=""stimulus-word"" style=""visibility: hidden;"">hineinlassen</div>","d","html-keyboard-response","4099","2.1.0","2385590","word:d, nonword:k","erfurt","aliona","toolongtoread","true","412998"
"main","Prechformatar","k","pseudoword","{""matched_word"":""Transformator"",""list"":""9"",""participant_in_list"":""9""}","424","<div class=""stimulus-text"" id=""stimulus-word"" style=""visibility: hidden;"">Prechformatar</div>","d","html-keyboard-response","4102","2.1.0","2387036","word:d, nonword:k","erfurt","aliona","toolongtoread","false","412998"
"main","Haltepunkt","d","word","{""matched_word"":""Bastebrust"",""list"":""9"",""participant_in_list"":""9""}","1757","<div class=""stimulus-text"" id=""stimulus-word"" style=""visibility: hidden;"">Haltepunkt</div>","d","html-keyboard-response","4105","2.1.0","2389811","word:d, nonword:k","erfurt","aliona","toolongtoread","true","412998"
"main","verächtlich","d","word","{""matched_word"":""vebünktlich"",""list"":""9"",""participant_in_list"":""9""}","1011","<div class=""stimulus-text"" id=""stimulus-word"" style=""visibility: hidden;"">verächtlich</div>","d","html-keyboard-response","4108","2.1.0","2391837","word:d, nonword:k","erfurt","aliona","toolongtoread","true","412998"
"main","lohnenswert","d","word","{""matched_word"":""fobnehrwert"",""list"":""9"",""participant_in_list"":""9""}","1020","<div class=""stimulus-text"" id=""stimulus-word"" style=""visibility: hidden;"">lohnenswert</div>","d","html-keyboard-response","4111","2.1.0","2393877","word:d, nonword:k","erfurt","aliona","toolongtoread","true","412998"
"main","verstören","d","word","{""matched_word"":""berglögen"",""list"":""9"",""participant_in_list"":""9""}","5649","<div class=""stimulus-text"" id=""stimulus-word"" style=""visibility: hidden;"">verstören</div>","d","html-keyboard-response","4114","2.1.0","2400546","word:d, nonword:k","erfurt","aliona","toolongtoread","true","412998"
"main","fösten","k","pseudoword","{""matched_word"":""listen"",""list"":""9"",""participant_in_list"":""9""}","2224","<div class=""stimulus-text"" id=""stimulus-word"" style=""visibility: hidden;"">fösten</div>","d","html-keyboard-response","4117","2.1.0","2403795","word:d, nonword:k","erfurt","aliona","toolongtoread","false","412998"
"main","heben","d","word","{""matched_word"":""feken"",""list"":""9"",""participant_in_list"":""9""}","589","<div class=""stimulus-text"" id=""stimulus-word"" style=""visibility: hidden;"">heben</div>","d","html-keyboard-response","4120","2.1.0","2405432","word:d, nonword:k","erfurt","aliona","toolongtoread","true","412998"
"main","dadens","k","pseudoword","{""matched_word"":""tadeln"",""list"":""9"",""participant_in_list"":""9""}","3474","<div class=""stimulus-text"" id=""stimulus-word"" style=""visibility: hidden;"">dadens</div>","d","html-keyboard-response","4123","2.1.0","2409926","word:d, nonword:k","erfurt","aliona","toolongtoread","false","412998"
"main","Lieblickskeid","k","pseudoword","{""matched_word"":""Lieblingslied"",""list"":""9"",""participant_in_list"":""9""}","2929","<div class=""stimulus-text"" id=""stimulus-word"" style=""visibility: hidden;"">Lieblickskeid</div>","d","html-keyboard-response","4126","2.1.0","2413897","word:d, nonword:k","erfurt","aliona","toolongtoread","false","412998"
"main","Asthstisse","k","pseudoword","{""matched_word"":""Funkstille"",""list"":""9"",""participant_in_list"":""9""}","3938","<div class=""stimulus-text"" id=""stimulus-word"" style=""visibility: hidden;"">Asthstisse</div>","d","html-keyboard-response","4129","2.1.0","2418872","word:d, nonword:k","erfurt","aliona","toolongtoread","false","412998"
"main","felalliffs","k","pseudoword","{""matched_word"":""metallisch"",""list"":""9"",""participant_in_list"":""9""}","3489","<div class=""stimulus-text"" id=""stimulus-word"" style=""visibility: hidden;"">felalliffs</div>","d","html-keyboard-response","4132","2.1.0","2423378","word:d, nonword:k","erfurt","aliona","toolongtoread","false","412998"
"main","Kratistenpasse","k","pseudoword","{""matched_word"":""Statistenrolle"",""list"":""9"",""participant_in_list"":""9""}","2329","<div class=""stimulus-text"" id=""stimulus-word"" style=""visibility: hidden;"">Kratistenpasse</div>","d","html-keyboard-response","4135","2.1.0","2426738","word:d, nonword:k","erfurt","aliona","toolongtoread","false","412998"
"main","versenden","d","word","{""matched_word"":""vermellen"",""list"":""9"",""participant_in_list"":""9""}","194","<div class=""stimulus-text"" id=""stimulus-word"" style=""visibility: hidden;"">versenden</div>","d","html-keyboard-response","4138","2.1.0","2427964","word:d, nonword:k","erfurt","aliona","toolongtoread","true","412998"
"main","Bauler","k","pseudoword","{""matched_word"":""Sauger"",""list"":""9"",""participant_in_list"":""9""}","242","<div class=""stimulus-text"" id=""stimulus-word"" style=""visibility: hidden;"">Bauler</div>","d","html-keyboard-response","4141","2.1.0","2429225","word:d, nonword:k","erfurt","aliona","toolongtoread","false","412998"
"main","Moralapostel","d","word","{""matched_word"":""Sisolafostel"",""list"":""9"",""participant_in_list"":""9""}","414","<div class=""stimulus-text"" id=""stimulus-word"" style=""visibility: hidden;"">Moralapostel</div>","d","html-keyboard-response","4144","2.1.0","2430656","word:d, nonword:k","erfurt","aliona","toolongtoread","true","412998"
"main","kitschig","d","word","{""matched_word"":""datschig"",""list"":""9"",""participant_in_list"":""9""}","467","<div class=""stimulus-text"" id=""stimulus-word"" style=""visibility: hidden;"">kitschig</div>","d","html-keyboard-response","4147","2.1.0","2432148","word:d, nonword:k","erfurt","aliona","toolongtoread","true","412998"
"main","Vorprüfung","d","word","{""matched_word"":""Korghüdung"",""list"":""9"",""participant_in_list"":""9""}","324","<div class=""stimulus-text"" id=""stimulus-word"" style=""visibility: hidden;"">Vorprüfung</div>","d","html-keyboard-response","4150","2.1.0","2433497","word:d, nonword:k","erfurt","aliona","toolongtoread","true","412998"
"main","Darstellung","d","word","{""matched_word"":""Donstelsung"",""list"":""9"",""participant_in_list"":""9""}","187","<div class=""stimulus-text"" id=""stimulus-word"" style=""visibility: hidden;"">Darstellung</div>","d","html-keyboard-response","4153","2.1.0","2434710","word:d, nonword:k","erfurt","aliona","toolongtoread","true","412998"
"main","Hufeisen","d","word","{""matched_word"":""Emmeilen"",""list"":""9"",""participant_in_list"":""9""}","64","<div class=""stimulus-text"" id=""stimulus-word"" style=""visibility: hidden;"">Hufeisen</div>","d","html-keyboard-response","4156","2.1.0","2435782","word:d, nonword:k","erfurt","aliona","toolongtoread","true","412998"
"main","Viebblaß","k","pseudoword","{""matched_word"":""Vielfraß"",""list"":""9"",""participant_in_list"":""9""}","334","<div class=""stimulus-text"" id=""stimulus-word"" style=""visibility: hidden;"">Viebblaß</div>","d","html-keyboard-response","4159","2.1.0","2437143","word:d, nonword:k","erfurt","aliona","toolongtoread","false","412998"
"main","Ikebrile","k","pseudoword","{""matched_word"":""Ehekrise"",""list"":""9"",""participant_in_list"":""9""}","140","<div class=""stimulus-text"" id=""stimulus-word"" style=""visibility: hidden;"">Ikebrile</div>","d","html-keyboard-response","4162","2.1.0","2438311","word:d, nonword:k","erfurt","aliona","toolongtoread","false","412998"
"main","Brutreaktor","d","word","{""matched_word"":""Ordspeaglor"",""list"":""9"",""participant_in_list"":""9""}","492","<div class=""stimulus-text"" id=""stimulus-word"" style=""visibility: hidden;"">Brutreaktor</div>","d","html-keyboard-response","4165","2.1.0","2439835","word:d, nonword:k","erfurt","aliona","toolongtoread","true","412998"
"main","Meelencaul","k","pseudoword","{""matched_word"":""Seelenqual"",""list"":""9"",""participant_in_list"":""9""}","236","<div class=""stimulus-text"" id=""stimulus-word"" style=""visibility: hidden;"">Meelencaul</div>","d","html-keyboard-response","4168","2.1.0","2441091","word:d, nonword:k","erfurt","aliona","toolongtoread","false","412998"
"main","Mitwirkung","d","word","{""matched_word"":""Mitfiffung"",""list"":""9"",""participant_in_list"":""9""}","479","<div class=""stimulus-text"" id=""stimulus-word"" style=""visibility: hidden;"">Mitwirkung</div>","d","html-keyboard-response","4171","2.1.0","2442597","word:d, nonword:k","erfurt","aliona","toolongtoread","true","412998"
"main","Familienkrach","d","word","{""matched_word"":""Familielbrins"",""list"":""9"",""participant_in_list"":""9""}","426","<div class=""stimulus-text"" id=""stimulus-word"" style=""visibility: hidden;"">Familienkrach</div>","d","html-keyboard-response","4174","2.1.0","2444035","word:d, nonword:k","erfurt","aliona","toolongtoread","true","412998"
"main","Bundokasmalatenheit","k","pseudoword","{""matched_word"":""Bundesangelegenheit"",""list"":""9"",""participant_in_list"":""9""}","1034","<div class=""stimulus-text"" id=""stimulus-word"" style=""visibility: hidden;"">Bundokasmalatenheit</div>","d","html-keyboard-response","4177","2.1.0","2446094","word:d, nonword:k","erfurt","aliona","toolongtoread","false","412998"
"main","Dunebufft","k","pseudoword","{""matched_word"":""Ruhepunkt"",""list"":""9"",""participant_in_list"":""9""}","2318","<div class=""stimulus-text"" id=""stimulus-word"" style=""visibility: hidden;"">Dunebufft</div>","d","html-keyboard-response","4180","2.1.0","2449439","word:d, nonword:k","erfurt","aliona","toolongtoread","false","412998"
"main","Unterlegenheit","d","word","{""matched_word"":""Enderdetelheit"",""list"":""9"",""participant_in_list"":""9""}","376","<div class=""stimulus-text"" id=""stimulus-word"" style=""visibility: hidden;"">Unterlegenheit</div>","d","html-keyboard-response","4183","2.1.0","2450845","word:d, nonword:k","erfurt","aliona","toolongtoread","true","412998"
"main","auswandern","d","word","{""matched_word"":""aufmanders"",""list"":""9"",""participant_in_list"":""9""}","5197","<div class=""stimulus-text"" id=""stimulus-word"" style=""visibility: hidden;"">auswandern</div>","d","html-keyboard-response","4186","2.1.0","2457067","word:d, nonword:k","erfurt","aliona","toolongtoread","true","412998"
"main","Bähnheim","k","pseudoword","{""matched_word"":""Wohnheim"",""list"":""9"",""participant_in_list"":""9""}","707","<div class=""stimulus-text"" id=""stimulus-word"" style=""visibility: hidden;"">Bähnheim</div>","d","html-keyboard-response","4189","2.1.0","2458801","word:d, nonword:k","erfurt","aliona","toolongtoread","false","412998"
"main","Kärler","k","pseudoword","{""matched_word"":""Kühler"",""list"":""9"",""participant_in_list"":""9""}","587","<div class=""stimulus-text"" id=""stimulus-word"" style=""visibility: hidden;"">Kärler</div>","d","html-keyboard-response","4192","2.1.0","2460404","word:d, nonword:k","erfurt","aliona","toolongtoread","false","412998"
"main","Gleisarbeiter","d","word","{""matched_word"":""Dreilormeiter"",""list"":""9"",""participant_in_list"":""9""}","450","<div class=""stimulus-text"" id=""stimulus-word"" style=""visibility: hidden;"">Gleisarbeiter</div>","d","html-keyboard-response","4195","2.1.0","2461877","word:d, nonword:k","erfurt","aliona","toolongtoread","true","412998"
"main","Rickbrysiker","k","pseudoword","{""matched_word"":""Kernphysiker"",""list"":""9"",""participant_in_list"":""9""}","440","<div class=""stimulus-text"" id=""stimulus-word"" style=""visibility: hidden;"">Rickbrysiker</div>","d","html-keyboard-response","4198","2.1.0","2463338","word:d, nonword:k","erfurt","aliona","toolongtoread","false","412998"
"main","Karpfenteich","d","word","{""matched_word"":""Tafffentauch"",""list"":""9"",""participant_in_list"":""9""}","863","<div class=""stimulus-text"" id=""stimulus-word"" style=""visibility: hidden;"">Karpfenteich</div>","d","html-keyboard-response","4201","2.1.0","2465217","word:d, nonword:k","erfurt","aliona","toolongtoread","true","412998"
"main","Feerrauf","k","pseudoword","{""matched_word"":""Leerlauf"",""list"":""9"",""participant_in_list"":""9""}","17971","<div class=""stimulus-text"" id=""stimulus-word"" style=""visibility: hidden;"">Feerrauf</div>","d","html-keyboard-response","4204","2.1.0","2484214","word:d, nonword:k","erfurt","aliona","toolongtoread","false","412998"
"main","Kauge","k","pseudoword","{""matched_word"":""Wiege"",""list"":""9"",""participant_in_list"":""9""}","1232","<div class=""stimulus-text"" id=""stimulus-word"" style=""visibility: hidden;"">Kauge</div>","d","html-keyboard-response","4207","2.1.0","2486468","word:d, nonword:k","erfurt","aliona","toolongtoread","false","412998"
"main","Wifbrennen","k","pseudoword","{""matched_word"":""Wettrennen"",""list"":""9"",""participant_in_list"":""9""}","5371","<div class=""stimulus-text"" id=""stimulus-word"" style=""visibility: hidden;"">Wifbrennen</div>","d","html-keyboard-response","4210","2.1.0","2492860","word:d, nonword:k","erfurt","aliona","toolongtoread","false","412998"
"main","Atgilariur","k","pseudoword","{""matched_word"":""Auditorium"",""list"":""9"",""participant_in_list"":""9""}","765","<div class=""stimulus-text"" id=""stimulus-word"" style=""visibility: hidden;"">Atgilariur</div>","d","html-keyboard-response","4213","2.1.0","2494657","word:d, nonword:k","erfurt","aliona","toolongtoread","false","412998"
"main","Schlüsselreiz","d","word","{""matched_word"":""Schnesselkeiz"",""list"":""9"",""participant_in_list"":""9""}","911","<div class=""stimulus-text"" id=""stimulus-word"" style=""visibility: hidden;"">Schlüsselreiz</div>","d","html-keyboard-response","4216","2.1.0","2496597","word:d, nonword:k","erfurt","aliona","toolongtoread","true","412998"
"main","Beimheidung","k","pseudoword","{""matched_word"":""Heimleitung"",""list"":""9"",""participant_in_list"":""9""}","1155","<div class=""stimulus-text"" id=""stimulus-word"" style=""visibility: hidden;"">Beimheidung</div>","d","html-keyboard-response","4219","2.1.0","2498787","word:d, nonword:k","erfurt","aliona","toolongtoread","false","412998"
"main","Fribrammeinsprache","k","pseudoword","{""matched_word"":""Programmiersprache"",""list"":""9"",""participant_in_list"":""9""}","982","<div class=""stimulus-text"" id=""stimulus-word"" style=""visibility: hidden;"">Fribrammeinsprache</div>","d","html-keyboard-response","4222","2.1.0","2500792","word:d, nonword:k","erfurt","aliona","toolongtoread","false","412998"
"main","human","d","word","{""matched_word"":""hukon"",""list"":""9"",""participant_in_list"":""9""}","686","<div class=""stimulus-text"" id=""stimulus-word"" style=""visibility: hidden;"">human</div>","d","html-keyboard-response","4225","2.1.0","2502490","word:d, nonword:k","erfurt","aliona","toolongtoread","true","412998"
"main","Reinihungsdrels","k","pseudoword","{""matched_word"":""Reinigungskraft"",""list"":""9"",""participant_in_list"":""9""}","1411","<div class=""stimulus-text"" id=""stimulus-word"" style=""visibility: hidden;"">Reinihungsdrels</div>","d","html-keyboard-response","4228","2.1.0","2504927","word:d, nonword:k","erfurt","aliona","toolongtoread","false","412998"
"main","Stadtpids","k","pseudoword","{""matched_word"":""Stadtpark"",""list"":""9"",""participant_in_list"":""9""}","982","<div class=""stimulus-text"" id=""stimulus-word"" style=""visibility: hidden;"">Stadtpids</div>","d","html-keyboard-response","4231","2.1.0","2506937","word:d, nonword:k","erfurt","aliona","toolongtoread","false","412998"
"main","nenschenwüflich","k","pseudoword","{""matched_word"":""menschenmöglich"",""list"":""9"",""participant_in_list"":""9""}","2423","<div class=""stimulus-text"" id=""stimulus-word"" style=""visibility: hidden;"">nenschenwüflich</div>","d","html-keyboard-response","4234","2.1.0","2510384","word:d, nonword:k","erfurt","aliona","toolongtoread","false","412998"
"main","Briefkasten","d","word","{""matched_word"":""Blaubkasten"",""list"":""9"",""participant_in_list"":""9""}","3569","<div class=""stimulus-text"" id=""stimulus-word"" style=""visibility: hidden;"">Briefkasten</div>","d","html-keyboard-response","4237","2.1.0","2514991","word:d, nonword:k","erfurt","aliona","toolongtoread","true","412998"
"main","Batwer","k","pseudoword","{""matched_word"":""Witwer"",""list"":""9"",""participant_in_list"":""9""}","462","<div class=""stimulus-text"" id=""stimulus-word"" style=""visibility: hidden;"">Batwer</div>","d","html-keyboard-response","4240","2.1.0","2516476","word:d, nonword:k","erfurt","aliona","toolongtoread","false","412998"
"main","Wunschkind","d","word","{""matched_word"":""Dschunhind"",""list"":""9"",""participant_in_list"":""9""}","268","<div class=""stimulus-text"" id=""stimulus-word"" style=""visibility: hidden;"">Wunschkind</div>","d","html-keyboard-response","4243","2.1.0","2517772","word:d, nonword:k","erfurt","aliona","toolongtoread","true","412998"
"main","Bähnseherau","k","pseudoword","{""matched_word"":""Hellseherei"",""list"":""9"",""participant_in_list"":""9""}","980","<div class=""stimulus-text"" id=""stimulus-word"" style=""visibility: hidden;"">Bähnseherau</div>","d","html-keyboard-response","4246","2.1.0","2519758","word:d, nonword:k","erfurt","aliona","toolongtoread","false","412998"
"main","Siegesfeier","d","word","{""matched_word"":""Keigeubeier"",""list"":""9"",""participant_in_list"":""9""}","226","<div class=""stimulus-text"" id=""stimulus-word"" style=""visibility: hidden;"">Siegesfeier</div>","d","html-keyboard-response","4249","2.1.0","2521016","word:d, nonword:k","erfurt","aliona","toolongtoread","true","412998"
"main","Marflieler","k","pseudoword","{""matched_word"":""Mitspieler"",""list"":""9"",""participant_in_list"":""9""}","370","<div class=""stimulus-text"" id=""stimulus-word"" style=""visibility: hidden;"">Marflieler</div>","d","html-keyboard-response","4252","2.1.0","2522413","word:d, nonword:k","erfurt","aliona","toolongtoread","false","412998"
"main","Kefte","k","pseudoword","{""matched_word"":""Kälte"",""list"":""9"",""participant_in_list"":""9""}","2080","<div class=""stimulus-text"" id=""stimulus-word"" style=""visibility: hidden;"">Kefte</div>","d","html-keyboard-response","4255","2.1.0","2525518","word:d, nonword:k","erfurt","aliona","toolongtoread","false","412998"
"main","Waldfriedhof","d","word","{""matched_word"":""Waktfrießhoß"",""list"":""9"",""participant_in_list"":""9""}","319","<div class=""stimulus-text"" id=""stimulus-word"" style=""visibility: hidden;"">Waldfriedhof</div>","d","html-keyboard-response","4258","2.1.0","2526859","word:d, nonword:k","erfurt","aliona","toolongtoread","true","412998"
"main","Asdäbkowie","k","pseudoword","{""matched_word"":""Endoskopie"",""list"":""9"",""participant_in_list"":""9""}","1109","<div class=""stimulus-text"" id=""stimulus-word"" style=""visibility: hidden;"">Asdäbkowie</div>","d","html-keyboard-response","4261","2.1.0","2529002","word:d, nonword:k","erfurt","aliona","toolongtoread","false","412998"
"main","unblau","k","pseudoword","{""matched_word"":""unfrei"",""list"":""9"",""participant_in_list"":""9""}","12670","<div class=""stimulus-text"" id=""stimulus-word"" style=""visibility: hidden;"">unblau</div>","d","html-keyboard-response","4264","2.1.0","2542696","word:d, nonword:k","erfurt","aliona","toolongtoread","false","412998"
"main","Bägon","k","pseudoword","{""matched_word"":""Räson"",""list"":""9"",""participant_in_list"":""9""}","358","<div class=""stimulus-text"" id=""stimulus-word"" style=""visibility: hidden;"">Bägon</div>","d","html-keyboard-response","4267","2.1.0","2544086","word:d, nonword:k","erfurt","aliona","toolongtoread","false","412998"
"main","berferfen","k","pseudoword","{""matched_word"":""vermerken"",""list"":""9"",""participant_in_list"":""9""}","544","<div class=""stimulus-text"" id=""stimulus-word"" style=""visibility: hidden;"">berferfen</div>","d","html-keyboard-response","4270","2.1.0","2545656","word:d, nonword:k","erfurt","aliona","toolongtoread","false","412998"
