"task","word","correct_response","type","log","rt","stimulus","response","trial_type","trial_index","plugin_version","time_elapsed","key_mapping","university","sonaID","personal_code","correct","subject_id"
"main","Bilpurterschnals","k","pseudoword","{""matched_word"":""Bildunterschrift"",""list"":""9"",""participant_in_list"":""9""}","343","<div class=""stimulus-text"" id=""stimulus-word"" style=""visibility: hidden;"">Bilpurterschnals</div>","d","html-keyboard-response","47","2.1.0","64192","word:d, nonword:k","erfurt","aliona","toolongtoread","false","412998"
"main","Schöbelbunds","k","pseudoword","{""matched_word"":""Schädelbruch"",""list"":""9"",""participant_in_list"":""9""}","219","<div class=""stimulus-text"" id=""stimulus-word"" style=""visibility: hidden;"">Schöbelbunds</div>","d","html-keyboard-response","50","2.1.0","65438","word:d, nonword:k","erfurt","aliona","toolongtoread","false","412998"
"main","verhitters","k","pseudoword","{""matched_word"":""verdattert"",""list"":""9"",""participant_in_list"":""9""}","352","<div class=""stimulus-text"" id=""stimulus-word"" style=""visibility: hidden;"">verhitters</div>","d","html-keyboard-response","53","2.1.0","66846","word:d, nonword:k","erfurt","aliona","toolongtoread","false","412998"
"main","Gebäu","k","pseudoword","{""matched_word"":""Gefäß"",""list"":""9"",""participant_in_list"":""9""}","563","<div class=""stimulus-text"" id=""stimulus-word"" style=""visibility: hidden;"">Gebäu</div>","d","html-keyboard-response","56","2.1.0","68434","word:d, nonword:k","erfurt","aliona","toolongtoread","false","412998"
"main","berkieben","k","pseudoword","{""matched_word"":""verzieren"",""list"":""9"",""participant_in_list"":""9""}","247","<div class=""stimulus-text"" id=""stimulus-word"" style=""visibility: hidden;"">berkieben</div>","d","html-keyboard-response","59","2.1.0","69706","word:d, nonword:k","erfurt","aliona","toolongtoread","false","412998"
"main","Lebensgemeinschaft","d","word","{""matched_word"":""Lebensgebiebschigt"",""list"":""9"",""participant_in_list"":""9""}","241","<div class=""stimulus-text"" id=""stimulus-word"" style=""visibility: hidden;"">Lebensgemeinschaft</div>","d","html-keyboard-response","62","2.1.0","70962","word:d, nonword:k","erfurt","aliona","toolongtoread","true","412998"
"main","Actrufoteg","k","pseudoword","{""matched_word"":""Luxushotel"",""list"":""9"",""participant_in_list"":""9""}","279","<div class=""stimulus-text"" id=""stimulus-word"" style=""visibility: hidden;"">Actrufoteg</div>","d","html-keyboard-response","65","2.1.0","72309","word:d, nonword:k","erfurt","aliona","toolongtoread","false","412998"
"main","Gahlschmelze","k","pseudoword","{""matched_word"":""Kernschmelze"",""list"":""9"",""participant_in_list"":""9""}","375","<div class=""stimulus-text"" id=""stimulus-word"" style=""visibility: hidden;"">Gahlschmelze</div>","d","html-keyboard-response","68","2.1.0","73705","word:d, nonword:k","erfurt","aliona","toolongtoread","false","412998"
"main","Anbehifwertheit","k","pseudoword","{""matched_word"":""Unbekümmertheit"",""list"":""9"",""participant_in_list"":""9""}","149","<div class=""stimulus-text"" id=""stimulus-word"" style=""visibility: hidden;"">Anbehifwertheit</div>","d","html-keyboard-response","71","2.1.0","74876","word:d, nonword:k","erfurt","aliona","toolongtoread","false","412998"
"main","fangelgahn","k","pseudoword","{""matched_word"":""mangelhaft"",""list"":""9"",""participant_in_list"":""9""}","372","<div class=""stimulus-text"" id=""stimulus-word"" style=""visibility: hidden;"">fangelgahn</div>","d","html-keyboard-response","74","2.1.0","76267","word:d, nonword:k","erfurt","aliona","toolongtoread","false","412998"
"main","Mainstream","d","word","{""matched_word"":""Santspream"",""list"":""9"",""participant_in_list"":""9""}","398","<div class=""stimulus-text"" id=""stimulus-word"" style=""visibility: hidden;"">Mainstream</div>","d","html-keyboard-response","77","2.1.0","77686","word:d, nonword:k","erfurt","aliona","toolongtoread","true","412998"
"main","Opmerelatian","k","pseudoword","{""matched_word"":""Alliteration"",""list"":""9"",""participant_in_list"":""9""}","325","<div class=""stimulus-text"" id=""stimulus-word"" style=""visibility: hidden;"">Opmerelatian</div>","d","html-keyboard-response","80","2.1.0","79039","word:d, nonword:k","erfurt","aliona","toolongtoread","false","412998"
"main","bummben","k","pseudoword","{""matched_word"":""knurren"",""list"":""9"",""participant_in_list"":""9""}","363","<div class=""stimulus-text"" id=""stimulus-word"" style=""visibility: hidden;"">bummben</div>","d","html-keyboard-response","83","2.1.0","80458","word:d, nonword:k","erfurt","aliona","toolongtoread","false","412998"
"main","aubrauren","k","pseudoword","{""matched_word"":""aufliegen"",""list"":""9"",""participant_in_list"":""9""}","310","<div class=""stimulus-text"" id=""stimulus-word"" style=""visibility: hidden;"">aubrauren</div>","d","html-keyboard-response","86","2.1.0","81787","word:d, nonword:k","erfurt","aliona","toolongtoread","false","412998"
"main","Regierungssitz","d","word","{""matched_word"":""Regiedungsnabt"",""list"":""9"",""participant_in_list"":""9""}","234","<div class=""stimulus-text"" id=""stimulus-word"" style=""visibility: hidden;"">Regierungssitz</div>","d","html-keyboard-response","89","2.1.0","83054","word:d, nonword:k","erfurt","aliona","toolongtoread","true","412998"
"main","gegafgen","k","pseudoword","{""matched_word"":""geborgen"",""list"":""9"",""participant_in_list"":""9""}","331","<div class=""stimulus-text"" id=""stimulus-word"" style=""visibility: hidden;"">gegafgen</div>","d","html-keyboard-response","92","2.1.0","84456","word:d, nonword:k","erfurt","aliona","toolongtoread","false","412998"
"main","Lenunliebung","k","pseudoword","{""matched_word"":""Rekrutierung"",""list"":""9"",""participant_in_list"":""9""}","459","<div class=""stimulus-text"" id=""stimulus-word"" style=""visibility: hidden;"">Lenunliebung</div>","d","html-keyboard-response","95","2.1.0","85947","word:d, nonword:k","erfurt","aliona","toolongtoread","false","412998"
"main","urteilen","d","word","{""matched_word"":""dubielen"",""list"":""9"",""participant_in_list"":""9""}","204","<div class=""stimulus-text"" id=""stimulus-word"" style=""visibility: hidden;"">urteilen</div>","d","html-keyboard-response","98","2.1.0","87163","word:d, nonword:k","erfurt","aliona","toolongtoread","true","412998"
"main","Chartergesellschaft","d","word","{""matched_word"":""Flartergerirtschabt"",""list"":""9"",""participant_in_list"":""9""}","1298","<div class=""stimulus-text"" id=""stimulus-word"" style=""visibility: hidden;"">Chartergesellschaft</div>","d","html-keyboard-response","101","2.1.0","89488","word:d, nonword:k","erfurt","aliona","toolongtoread","true","412998"
"main","Forginzer","k","pseudoword","{""matched_word"":""Vortänzer"",""list"":""9"",""participant_in_list"":""9""}","106","<div class=""stimulus-text"" id=""stimulus-word"" style=""visibility: hidden;"">Forginzer</div>","d","html-keyboard-response","104","2.1.0","90623","word:d, nonword:k","erfurt","aliona","toolongtoread","false","412998"
"main","Fentfesse","k","pseudoword","{""matched_word"":""Fachmesse"",""list"":""9"",""participant_in_list"":""9""}","727","<div class=""stimulus-text"" id=""stimulus-word"" style=""visibility: hidden;"">Fentfesse</div>","d","html-keyboard-response","107","2.1.0","92379","word:d, nonword:k","erfurt","aliona","toolongtoread","false","412998"
"main","babgebören","k","pseudoword","{""matched_word"":""hingehören"",""list"":""9"",""participant_in_list"":""9""}","353","<div class=""stimulus-text"" id=""stimulus-word"" style=""visibility: hidden;"">babgebören</div>","d","html-keyboard-response","110","2.1.0","93760","word:d, nonword:k","erfurt","aliona","toolongtoread","false","412998"
"main","nuwenstrauchen","k","pseudoword","{""matched_word"":""unterstreichen"",""list"":""9"",""participant_in_list"":""9""}","382","<div class=""stimulus-text"" id=""stimulus-word"" style=""visibility: hidden;"">nuwenstrauchen</div>","d","html-keyboard-response","113","2.1.0","95170","word:d, nonword:k","erfurt","aliona","toolongtoread","false","412998"
"main","Obligation","d","word","{""matched_word"":""Atribotian"",""list"":""9"",""participant_in_list"":""9""}","119","<div class=""stimulus-text"" id=""stimulus-word"" style=""visibility: hidden;"">Obligation</div>","d","html-keyboard-response","116","2.1.0","96334","word:d, nonword:k","erfurt","aliona","toolongtoread","true","412998"
"main","Malz","d","word","{""matched_word"":""Mapf"",""list"":""9"",""participant_in_list"":""9""}","176","<div class=""stimulus-text"" id=""stimulus-word"" style=""visibility: hidden;"">Malz</div>","d","html-keyboard-response","119","2.1.0","97527","word:d, nonword:k","erfurt","aliona","toolongtoread","true","412998"
"main","Bobrenkag","k","pseudoword","{""matched_word"":""Wochentag"",""list"":""9"",""participant_in_list"":""9""}","274","<div class=""stimulus-text"" id=""stimulus-word"" style=""visibility: hidden;"">Bobrenkag</div>","d","html-keyboard-response","122","2.1.0","98828","word:d, nonword:k","erfurt","aliona","toolongtoread","false","412998"
"main","Trehlbrett","k","pseudoword","{""matched_word"":""Trittbrett"",""list"":""9"",""participant_in_list"":""9""}","64","<div class=""stimulus-text"" id=""stimulus-word"" style=""visibility: hidden;"">Trehlbrett</div>","d","html-keyboard-response","125","2.1.0","99921","word:d, nonword:k","erfurt","aliona","toolongtoread","false","412998"
"main","Antersteichseckenar","k","pseudoword","{""matched_word"":""Unterstaatssekretär"",""list"":""9"",""participant_in_list"":""9""}","324","<div class=""stimulus-text"" id=""stimulus-word"" style=""visibility: hidden;"">Antersteichseckenar</div>","d","html-keyboard-response","128","2.1.0","101271","word:d, nonword:k","erfurt","aliona","toolongtoread","false","412998"
"main","unverschuldet","d","word","{""matched_word"":""lucendungsdet"",""list"":""9"",""participant_in_list"":""9""}","163","<div class=""stimulus-text"" id=""stimulus-word"" style=""visibility: hidden;"">unverschuldet</div>","d","html-keyboard-response","131","2.1.0","102463","word:d, nonword:k","erfurt","aliona","toolongtoread","true","412998"
"main","Qualitätsmaßstab","d","word","{""matched_word"":""Qualitährfiktrab"",""list"":""9"",""participant_in_list"":""9""}","477","<div class=""stimulus-text"" id=""stimulus-word"" style=""visibility: hidden;"">Qualitätsmaßstab</div>","d","html-keyboard-response","134","2.1.0","103965","word:d, nonword:k","erfurt","aliona","toolongtoread","true","412998"
"main","Staldbriepe","k","pseudoword","{""matched_word"":""Stammkneipe"",""list"":""9"",""participant_in_list"":""9""}","926","<div class=""stimulus-text"" id=""stimulus-word"" style=""visibility: hidden;"">Staldbriepe</div>","d","html-keyboard-response","137","2.1.0","105919","word:d, nonword:k","erfurt","aliona","toolongtoread","false","412998"
"main","Verfacksbegel","k","pseudoword","{""matched_word"":""Verkehrsregel"",""list"":""9"",""participant_in_list"":""9""}","1010","<div class=""stimulus-text"" id=""stimulus-word"" style=""visibility: hidden;"">Verfacksbegel</div>","d","html-keyboard-response","140","2.1.0","107947","word:d, nonword:k","erfurt","aliona","toolongtoread","false","412998"
"main","Herold","d","word","{""matched_word"":""Beroff"",""list"":""9"",""participant_in_list"":""9""}","2122","<div class=""stimulus-text"" id=""stimulus-word"" style=""visibility: hidden;"">Herold</div>","d","html-keyboard-response","143","2.1.0","111095","word:d, nonword:k","erfurt","aliona","toolongtoread","true","412998"
"main","Bafero","k","pseudoword","{""matched_word"":""Kamera"",""list"":""9"",""participant_in_list"":""9""}","132","<div class=""stimulus-text"" id=""stimulus-word"" style=""visibility: hidden;"">Bafero</div>","d","html-keyboard-response","146","2.1.0","112243","word:d, nonword:k","erfurt","aliona","toolongtoread","false","412998"
"main","Kurzhaar","d","word","{""matched_word"":""Brusheer"",""list"":""9"",""participant_in_list"":""9""}","871","<div class=""stimulus-text"" id=""stimulus-word"" style=""visibility: hidden;"">Kurzhaar</div>","d","html-keyboard-response","149","2.1.0","114135","word:d, nonword:k","erfurt","aliona","toolongtoread","true","412998"
"main","Plexiglas","d","word","{""matched_word"":""Pfexidris"",""list"":""9"",""participant_in_list"":""9""}","305","<div class=""stimulus-text"" id=""stimulus-word"" style=""visibility: hidden;"">Plexiglas</div>","d","html-keyboard-response","152","2.1.0","115471","word:d, nonword:k","erfurt","aliona","toolongtoread","true","412998"
"main","Kredit","d","word","{""matched_word"":""Frebit"",""list"":""9"",""participant_in_list"":""9""}","9","<div class=""stimulus-text"" id=""stimulus-word"" style=""visibility: hidden;"">Kredit</div>","d","html-keyboard-response","155","2.1.0","116500","word:d, nonword:k","erfurt","aliona","toolongtoread","true","412998"
"main","Alhaft","k","pseudoword","{""matched_word"":""Umhang"",""list"":""9"",""participant_in_list"":""9""}","377","<div class=""stimulus-text"" id=""stimulus-word"" style=""visibility: hidden;"">Alhaft</div>","d","html-keyboard-response","158","2.1.0","117906","word:d, nonword:k","erfurt","aliona","toolongtoread","false","412998"
"main","Pachfuhrt","k","pseudoword","{""matched_word"":""Nachwuchs"",""list"":""9"",""participant_in_list"":""9""}","225","<div class=""stimulus-text"" id=""stimulus-word"" style=""visibility: hidden;"">Pachfuhrt</div>","d","html-keyboard-response","161","2.1.0","119149","word:d, nonword:k","erfurt","aliona","toolongtoread","false","412998"
"main","dallierbar","k","pseudoword","{""matched_word"":""passierbar"",""list"":""9"",""participant_in_list"":""9""}","279","<div class=""stimulus-text"" id=""stimulus-word"" style=""visibility: hidden;"">dallierbar</div>","d","html-keyboard-response","164","2.1.0","120454","word:d, nonword:k","erfurt","aliona","toolongtoread","false","412998"
"main","Kirchocke","k","pseudoword","{""matched_word"":""Türglocke"",""list"":""9"",""participant_in_list"":""9""}","142","<div class=""stimulus-text"" id=""stimulus-word"" style=""visibility: hidden;"">Kirchocke</div>","d","html-keyboard-response","167","2.1.0","121643","word:d, nonword:k","erfurt","aliona","toolongtoread","false","412998"
"main","Osmose","d","word","{""matched_word"":""Agfole"",""list"":""9"",""participant_in_list"":""9""}","305","<div class=""stimulus-text"" id=""stimulus-word"" style=""visibility: hidden;"">Osmose</div>","d","html-keyboard-response","170","2.1.0","122963","word:d, nonword:k","erfurt","aliona","toolongtoread","true","412998"
"main","Gepäckaufbewahrung","d","word","{""matched_word"":""Bepäspießbekarrung"",""list"":""9"",""participant_in_list"":""9""}","415","<div class=""stimulus-text"" id=""stimulus-word"" style=""visibility: hidden;"">Gepäckaufbewahrung</div>","d","html-keyboard-response","173","2.1.0","124389","word:d, nonword:k","erfurt","aliona","toolongtoread","true","412998"
"main","aufkochen","d","word","{""matched_word"":""ausfächen"",""list"":""9"",""participant_in_list"":""9""}","160","<div class=""stimulus-text"" id=""stimulus-word"" style=""visibility: hidden;"">aufkochen</div>","d","html-keyboard-response","176","2.1.0","125585","word:d, nonword:k","erfurt","aliona","toolongtoread","true","412998"
"main","güssen","k","pseudoword","{""matched_word"":""hissen"",""list"":""9"",""participant_in_list"":""9""}","329","<div class=""stimulus-text"" id=""stimulus-word"" style=""visibility: hidden;"">güssen</div>","d","html-keyboard-response","179","2.1.0","126936","word:d, nonword:k","erfurt","aliona","toolongtoread","false","412998"
"main","Geschäftspost","d","word","{""matched_word"":""Geschäckdrast"",""list"":""9"",""participant_in_list"":""9""}","206","<div class=""stimulus-text"" id=""stimulus-word"" style=""visibility: hidden;"">Geschäftspost</div>","d","html-keyboard-response","182","2.1.0","128171","word:d, nonword:k","erfurt","aliona","toolongtoread","true","412998"
"main","Tatort","d","word","{""matched_word"":""Katart"",""list"":""9"",""participant_in_list"":""9""}","1","<div class=""stimulus-text"" id=""stimulus-word"" style=""visibility: hidden;"">Tatort</div>","d","html-keyboard-response","185","2.1.0","129192","word:d, nonword:k","erfurt","aliona","toolongtoread","true","412998"
"main","Nadelkissen","d","word","{""matched_word"":""Fadelfillen"",""list"":""9"",""participant_in_list"":""9""}","58","<div class=""stimulus-text"" id=""stimulus-word"" style=""visibility: hidden;"">Nadelkissen</div>","d","html-keyboard-response","188","2.1.0","130274","word:d, nonword:k","erfurt","aliona","toolongtoread","true","412998"
"main","Korderdees","k","pseudoword","{""matched_word"":""Vorderhaus"",""list"":""9"",""participant_in_list"":""9""}","594","<div class=""stimulus-text"" id=""stimulus-word"" style=""visibility: hidden;"">Korderdees</div>","d","html-keyboard-response","191","2.1.0","131881","word:d, nonword:k","erfurt","aliona","toolongtoread","false","412998"
"main","Kibol","k","pseudoword","{""matched_word"":""Tirol"",""list"":""9"",""participant_in_list"":""9""}","121","<div class=""stimulus-text"" id=""stimulus-word"" style=""visibility: hidden;"">Kibol</div>","d","html-keyboard-response","194","2.1.0","133028","word:d, nonword:k","erfurt","aliona","toolongtoread","false","412998"
"main","Gerichtswesen","d","word","{""matched_word"":""Berahrtskesen"",""list"":""9"",""participant_in_list"":""9""}","1031","<div class=""stimulus-text"" id=""stimulus-word"" style=""visibility: hidden;"">Gerichtswesen</div>","d","html-keyboard-response","197","2.1.0","135087","word:d, nonword:k","erfurt","aliona","toolongtoread","true","412998"
"main","Sonderposten","d","word","{""matched_word"":""Hohterbosten"",""list"":""9"",""participant_in_list"":""9""}","149","<div class=""stimulus-text"" id=""stimulus-word"" style=""visibility: hidden;"">Sonderposten</div>","d","html-keyboard-response","200","2.1.0","136273","word:d, nonword:k","erfurt","aliona","toolongtoread","true","412998"
"main","Geheimcode","d","word","{""matched_word"":""Heviembode"",""list"":""9"",""participant_in_list"":""9""}","264","<div class=""stimulus-text"" id=""stimulus-word"" style=""visibility: hidden;"">Geheimcode</div>","d","html-keyboard-response","203","2.1.0","137564","word:d, nonword:k","erfurt","aliona","toolongtoread","true","412998"
"main","Kampfsport","d","word","{""matched_word"":""Kacksspart"",""list"":""9"",""participant_in_list"":""9""}","408","<div class=""stimulus-text"" id=""stimulus-word"" style=""visibility: hidden;"">Kampfsport</div>","d","html-keyboard-response","206","2.1.0","138982","word:d, nonword:k","erfurt","aliona","toolongtoread","true","412998"
"main","Außendienst","d","word","{""matched_word"":""Osjendiebst"",""list"":""9"",""participant_in_list"":""9""}","1223","<div class=""stimulus-text"" id=""stimulus-word"" style=""visibility: hidden;"">Außendienst</div>","d","html-keyboard-response","209","2.1.0","141225","word:d, nonword:k","erfurt","aliona","toolongtoread","true","412998"
"main","odigilas","k","pseudoword","{""matched_word"":""originär"",""list"":""9"",""participant_in_list"":""9""}","130","<div class=""stimulus-text"" id=""stimulus-word"" style=""visibility: hidden;"">odigilas</div>","d","html-keyboard-response","212","2.1.0","142383","word:d, nonword:k","erfurt","aliona","toolongtoread","false","412998"
"main","Heckbahler","k","pseudoword","{""matched_word"":""Herzfehler"",""list"":""9"",""participant_in_list"":""9""}","1141","<div class=""stimulus-text"" id=""stimulus-word"" style=""visibility: hidden;"">Heckbahler</div>","d","html-keyboard-response","215","2.1.0","144548","word:d, nonword:k","erfurt","aliona","toolongtoread","false","412998"
"main","Labferfahren","k","pseudoword","{""matched_word"":""Vorverfahren"",""list"":""9"",""participant_in_list"":""9""}","399","<div class=""stimulus-text"" id=""stimulus-word"" style=""visibility: hidden;"">Labferfahren</div>","d","html-keyboard-response","218","2.1.0","145968","word:d, nonword:k","erfurt","aliona","toolongtoread","false","412998"
"main","Blölidennin","k","pseudoword","{""matched_word"":""Präsidentin"",""list"":""9"",""participant_in_list"":""9""}","438","<div class=""stimulus-text"" id=""stimulus-word"" style=""visibility: hidden;"">Blölidennin</div>","d","html-keyboard-response","221","2.1.0","147417","word:d, nonword:k","erfurt","aliona","toolongtoread","false","412998"
"main","Brauchnaschinerei","k","pseudoword","{""matched_word"":""Kriegsmaschinerie"",""list"":""9"",""participant_in_list"":""9""}","478","<div class=""stimulus-text"" id=""stimulus-word"" style=""visibility: hidden;"">Brauchnaschinerei</div>","d","html-keyboard-response","224","2.1.0","148919","word:d, nonword:k","erfurt","aliona","toolongtoread","false","412998"
"main","Busimpe","k","pseudoword","{""matched_word"":""Strippe"",""list"":""9"",""participant_in_list"":""9""}","357","<div class=""stimulus-text"" id=""stimulus-word"" style=""visibility: hidden;"">Busimpe</div>","d","html-keyboard-response","227","2.1.0","150307","word:d, nonword:k","erfurt","aliona","toolongtoread","false","412998"
"main","Urkunde","d","word","{""matched_word"":""Erkurle"",""list"":""9"",""participant_in_list"":""9""}","504","<div class=""stimulus-text"" id=""stimulus-word"" style=""visibility: hidden;"">Urkunde</div>","d","html-keyboard-response","230","2.1.0","151828","word:d, nonword:k","erfurt","aliona","toolongtoread","true","412998"
"main","anhalten","d","word","{""matched_word"":""abdilten"",""list"":""9"",""participant_in_list"":""9""}","1060","<div class=""stimulus-text"" id=""stimulus-word"" style=""visibility: hidden;"">anhalten</div>","d","html-keyboard-response","233","2.1.0","153901","word:d, nonword:k","erfurt","aliona","toolongtoread","true","412998"
"main","projizieren","d","word","{""matched_word"":""gricifieren"",""list"":""9"",""participant_in_list"":""9""}","627","<div class=""stimulus-text"" id=""stimulus-word"" style=""visibility: hidden;"">projizieren</div>","d","html-keyboard-response","236","2.1.0","155541","word:d, nonword:k","erfurt","aliona","toolongtoread","true","412998"
"main","Umschalttaste","d","word","{""matched_word"":""Emschächfaste"",""list"":""9"",""participant_in_list"":""9""}","454","<div class=""stimulus-text"" id=""stimulus-word"" style=""visibility: hidden;"">Umschalttaste</div>","d","html-keyboard-response","239","2.1.0","157008","word:d, nonword:k","erfurt","aliona","toolongtoread","true","412998"
"main","zweifelsohne","d","word","{""matched_word"":""freifeldärne"",""list"":""9"",""participant_in_list"":""9""}","529","<div class=""stimulus-text"" id=""stimulus-word"" style=""visibility: hidden;"">zweifelsohne</div>","d","html-keyboard-response","242","2.1.0","158565","word:d, nonword:k","erfurt","aliona","toolongtoread","true","412998"
"main","bestechlich","d","word","{""matched_word"":""beszaktlich"",""list"":""9"",""participant_in_list"":""9""}","506","<div class=""stimulus-text"" id=""stimulus-word"" style=""visibility: hidden;"">bestechlich</div>","d","html-keyboard-response","245","2.1.0","160097","word:d, nonword:k","erfurt","aliona","toolongtoread","true","412998"
"main","Cornflakes","d","word","{""matched_word"":""Caffplakes"",""list"":""9"",""participant_in_list"":""9""}","321","<div class=""stimulus-text"" id=""stimulus-word"" style=""visibility: hidden;"">Cornflakes</div>","d","html-keyboard-response","248","2.1.0","161446","word:d, nonword:k","erfurt","aliona","toolongtoread","true","412998"
"main","Unterdruck","d","word","{""matched_word"":""Addergrubt"",""list"":""9"",""participant_in_list"":""9""}","173","<div class=""stimulus-text"" id=""stimulus-word"" style=""visibility: hidden;"">Unterdruck</div>","d","html-keyboard-response","251","2.1.0","162635","word:d, nonword:k","erfurt","aliona","toolongtoread","true","412998"
"main","Fleirofs","k","pseudoword","{""matched_word"":""Bleirohr"",""list"":""9"",""participant_in_list"":""9""}","252","<div class=""stimulus-text"" id=""stimulus-word"" style=""visibility: hidden;"">Fleirofs</div>","d","html-keyboard-response","254","2.1.0","163909","word:d, nonword:k","erfurt","aliona","toolongtoread","false","412998"
"main","einträchtig","d","word","{""matched_word"":""einflicktig"",""list"":""9"",""participant_in_list"":""9""}","609","<div class=""stimulus-text"" id=""stimulus-word"" style=""visibility: hidden;"">einträchtig</div>","d","html-keyboard-response","257","2.1.0","165545","word:d, nonword:k","erfurt","aliona","toolongtoread","true","412998"
"main","Funkstation","d","word","{""matched_word"":""Brunchotian"",""list"":""9"",""participant_in_list"":""9""}","35","<div class=""stimulus-text"" id=""stimulus-word"" style=""visibility: hidden;"">Funkstation</div>","d","html-keyboard-response","260","2.1.0","166603","word:d, nonword:k","erfurt","aliona","toolongtoread","true","412998"
"main","Homtezug","k","pseudoword","{""matched_word"":""Beutezug"",""list"":""9"",""participant_in_list"":""9""}","265","<div class=""stimulus-text"" id=""stimulus-word"" style=""visibility: hidden;"">Homtezug</div>","d","html-keyboard-response","263","2.1.0","167898","word:d, nonword:k","erfurt","aliona","toolongtoread","false","412998"
"main","Fachbündstunle","k","pseudoword","{""matched_word"":""Fachhochschule"",""list"":""9"",""participant_in_list"":""9""}","1165","<div class=""stimulus-text"" id=""stimulus-word"" style=""visibility: hidden;"">Fachbündstunle</div>","d","html-keyboard-response","266","2.1.0","170084","word:d, nonword:k","erfurt","aliona","toolongtoread","false","412998"
"main","Arbeitserlaubnis","d","word","{""matched_word"":""Arbeilnerbauflis"",""list"":""9"",""participant_in_list"":""9""}","17","<div class=""stimulus-text"" id=""stimulus-word"" style=""visibility: hidden;"">Arbeitserlaubnis</div>","d","html-keyboard-response","269","2.1.0","171125","word:d, nonword:k","erfurt","aliona","toolongtoread","true","412998"
"main","Ahnfe","k","pseudoword","{""matched_word"":""Stube"",""list"":""9"",""participant_in_list"":""9""}","889","<div class=""stimulus-text"" id=""stimulus-word"" style=""visibility: hidden;"">Ahnfe</div>","d","html-keyboard-response","272","2.1.0","173038","word:d, nonword:k","erfurt","aliona","toolongtoread","false","412998"
"main","Reflendiociv","k","pseudoword","{""matched_word"":""Kohlendioxid"",""list"":""9"",""participant_in_list"":""9""}","362","<div class=""stimulus-text"" id=""stimulus-word"" style=""visibility: hidden;"">Reflendiociv</div>","d","html-keyboard-response","275","2.1.0","174417","word:d, nonword:k","erfurt","aliona","toolongtoread","false","412998"
"main","jebäch","k","pseudoword","{""matched_word"":""jedoch"",""list"":""9"",""participant_in_list"":""9""}","610","<div class=""stimulus-text"" id=""stimulus-word"" style=""visibility: hidden;"">jebäch</div>","d","html-keyboard-response","278","2.1.0","176056","word:d, nonword:k","erfurt","aliona","toolongtoread","false","412998"
"main","Öffellünge","k","pseudoword","{""matched_word"":""Ärmellänge"",""list"":""9"",""participant_in_list"":""9""}","126","<div class=""stimulus-text"" id=""stimulus-word"" style=""visibility: hidden;"">Öffellünge</div>","d","html-keyboard-response","281","2.1.0","177203","word:d, nonword:k","erfurt","aliona","toolongtoread","false","412998"
"main","Basotannage","k","pseudoword","{""matched_word"":""Radaranlage"",""list"":""9"",""participant_in_list"":""9""}","101","<div class=""stimulus-text"" id=""stimulus-word"" style=""visibility: hidden;"">Basotannage</div>","d","html-keyboard-response","284","2.1.0","178325","word:d, nonword:k","erfurt","aliona","toolongtoread","false","412998"
"main","Dalz","k","pseudoword","{""matched_word"":""Damm"",""list"":""9"",""participant_in_list"":""9""}","297","<div class=""stimulus-text"" id=""stimulus-word"" style=""visibility: hidden;"">Dalz</div>","d","html-keyboard-response","287","2.1.0","179639","word:d, nonword:k","erfurt","aliona","toolongtoread","false","412998"
"main","brutal","d","word","{""matched_word"":""bumtam"",""list"":""9"",""participant_in_list"":""9""}","545","<div class=""stimulus-text"" id=""stimulus-word"" style=""visibility: hidden;"">brutal</div>","d","html-keyboard-response","290","2.1.0","181201","word:d, nonword:k","erfurt","aliona","toolongtoread","true","412998"
"main","nostalgisch","d","word","{""matched_word"":""mostardisch"",""list"":""9"",""participant_in_list"":""9""}","6","<div class=""stimulus-text"" id=""stimulus-word"" style=""visibility: hidden;"">nostalgisch</div>","d","html-keyboard-response","293","2.1.0","182237","word:d, nonword:k","erfurt","aliona","toolongtoread","true","412998"
"main","Cousin","d","word","{""matched_word"":""Aiubin"",""list"":""9"",""participant_in_list"":""9""}","472","<div class=""stimulus-text"" id=""stimulus-word"" style=""visibility: hidden;"">Cousin</div>","d","html-keyboard-response","296","2.1.0","183727","word:d, nonword:k","erfurt","aliona","toolongtoread","true","412998"
"main","Freiheitsentzug","d","word","{""matched_word"":""Fleiheibhantzug"",""list"":""9"",""participant_in_list"":""9""}","1188","<div class=""stimulus-text"" id=""stimulus-word"" style=""visibility: hidden;"">Freiheitsentzug</div>","d","html-keyboard-response","299","2.1.0","185936","word:d, nonword:k","erfurt","aliona","toolongtoread","true","412998"
"main","dumerscheiken","k","pseudoword","{""matched_word"":""umherstreifen"",""list"":""9"",""participant_in_list"":""9""}","98","<div class=""stimulus-text"" id=""stimulus-word"" style=""visibility: hidden;"">dumerscheiken</div>","d","html-keyboard-response","302","2.1.0","187112","word:d, nonword:k","erfurt","aliona","toolongtoread","false","412998"
"main","mitreisen","d","word","{""matched_word"":""fibreilen"",""list"":""9"",""participant_in_list"":""9""}","75","<div class=""stimulus-text"" id=""stimulus-word"" style=""visibility: hidden;"">mitreisen</div>","d","html-keyboard-response","305","2.1.0","188215","word:d, nonword:k","erfurt","aliona","toolongtoread","true","412998"
"main","Feiz","k","pseudoword","{""matched_word"":""Reiz"",""list"":""9"",""participant_in_list"":""9""}","61","<div class=""stimulus-text"" id=""stimulus-word"" style=""visibility: hidden;"">Feiz</div>","d","html-keyboard-response","308","2.1.0","189302","word:d, nonword:k","erfurt","aliona","toolongtoread","false","412998"
"main","Wehndühle","k","pseudoword","{""matched_word"":""Windmühle"",""list"":""9"",""participant_in_list"":""9""}","115","<div class=""stimulus-text"" id=""stimulus-word"" style=""visibility: hidden;"">Wehndühle</div>","d","html-keyboard-response","311","2.1.0","190437","word:d, nonword:k","erfurt","aliona","toolongtoread","false","412998"
"main","unchafen","k","pseudoword","{""matched_word"":""umgraben"",""list"":""9"",""participant_in_list"":""9""}","228","<div class=""stimulus-text"" id=""stimulus-word"" style=""visibility: hidden;"">unchafen</div>","d","html-keyboard-response","314","2.1.0","191686","word:d, nonword:k","erfurt","aliona","toolongtoread","false","412998"
"main","Hadtbeit","k","pseudoword","{""matched_word"":""Halbzeit"",""list"":""9"",""participant_in_list"":""9""}","1095","<div class=""stimulus-text"" id=""stimulus-word"" style=""visibility: hidden;"">Hadtbeit</div>","d","html-keyboard-response","317","2.1.0","193810","word:d, nonword:k","erfurt","aliona","toolongtoread","false","412998"
"main","horbören","k","pseudoword","{""matched_word"":""hinhören"",""list"":""9"",""participant_in_list"":""9""}","980","<div class=""stimulus-text"" id=""stimulus-word"" style=""visibility: hidden;"">horbören</div>","d","html-keyboard-response","320","2.1.0","195804","word:d, nonword:k","erfurt","aliona","toolongtoread","false","412998"
"main","Beerlürste","k","pseudoword","{""matched_word"":""Haarbürste"",""list"":""9"",""participant_in_list"":""9""}","972","<div class=""stimulus-text"" id=""stimulus-word"" style=""visibility: hidden;"">Beerlürste</div>","d","html-keyboard-response","323","2.1.0","197805","word:d, nonword:k","erfurt","aliona","toolongtoread","false","412998"
"main","Gefühllosigkeit","d","word","{""matched_word"":""Lehüchrasigkeit"",""list"":""9"",""participant_in_list"":""9""}","782","<div class=""stimulus-text"" id=""stimulus-word"" style=""visibility: hidden;"">Gefühllosigkeit</div>","d","html-keyboard-response","326","2.1.0","199620","word:d, nonword:k","erfurt","aliona","toolongtoread","true","412998"
"main","Staufblatte","k","pseudoword","{""matched_word"":""Steinplatte"",""list"":""9"",""participant_in_list"":""9""}","947","<div class=""stimulus-text"" id=""stimulus-word"" style=""visibility: hidden;"">Staufblatte</div>","d","html-keyboard-response","329","2.1.0","201597","word:d, nonword:k","erfurt","aliona","toolongtoread","false","412998"
"main","Merbebifteg","k","pseudoword","{""matched_word"":""Werbemittel"",""list"":""9"",""participant_in_list"":""9""}","183","<div class=""stimulus-text"" id=""stimulus-word"" style=""visibility: hidden;"">Merbebifteg</div>","d","html-keyboard-response","332","2.1.0","202804","word:d, nonword:k","erfurt","aliona","toolongtoread","false","412998"
"main","Fauter","k","pseudoword","{""matched_word"":""Mieter"",""list"":""9"",""participant_in_list"":""9""}","5","<div class=""stimulus-text"" id=""stimulus-word"" style=""visibility: hidden;"">Fauter</div>","d","html-keyboard-response","335","2.1.0","203826","word:d, nonword:k","erfurt","aliona","toolongtoread","false","412998"
"main","Feuerzeichen","d","word","{""matched_word"":""Eilerdeichen"",""list"":""9"",""participant_in_list"":""9""}","659","<div class=""stimulus-text"" id=""stimulus-word"" style=""visibility: hidden;"">Feuerzeichen</div>","d","html-keyboard-response","338","2.1.0","205504","word:d, nonword:k","erfurt","aliona","toolongtoread","true","412998"
"main","Segelflug","d","word","{""matched_word"":""Legenhuts"",""list"":""9"",""participant_in_list"":""9""}","205","<div class=""stimulus-text"" id=""stimulus-word"" style=""visibility: hidden;"">Segelflug</div>","d","html-keyboard-response","341","2.1.0","206739","word:d, nonword:k","erfurt","aliona","toolongtoread","true","412998"
"main","Nerbreich","k","pseudoword","{""matched_word"":""Vergleich"",""list"":""9"",""participant_in_list"":""9""}","49","<div class=""stimulus-text"" id=""stimulus-word"" style=""visibility: hidden;"">Nerbreich</div>","d","html-keyboard-response","344","2.1.0","207817","word:d, nonword:k","erfurt","aliona","toolongtoread","false","412998"
